trial_id,participant_id,condition,difficulty,correct,rt_ms,confidence_1_5
1,399,b,easy,1,458.0,1
2,19,a,easy,1,414.1,5
3,993,C,MEDIUM,tak,"405,3",3
4,160,B,easy,tak,479.8,1
5,650,C,hard,1,731.2,4
6,440,B,medium,nie,633.8,3
7,613,C,HARD,nie,"619,9",1
8,296,B,medium,0,"609,6",1
9,897,a,HARD,0,538.5,1
10,416,a,HARD,0,706.0,1
11,556,a,easy,0,525.9,brak
12,3,a,EASY,tak,494.4,1
13,310,B,hard,nie,"472,7",2
14,716,A,EASY,1,602.8,4
15,984,c,medium,0,634.4,2
16,1,a,hard,tak,522.3,1
17,425,A,easy,1,605.8,brak
18,443,a,HARD,0,"617,5",5
19,706,b,HARD,1,798.3,brak
20,659,a,HARD,0,850.1,4
21,726,A,hard,nie,755.0,4
22,249,a,MEDIUM,nie,592.4,4
23,931,a,medium,0,488.0,5
24,413,A,easy,tak,454.4,4
25,139,b,easy,tak,541.7,4
26,751,B,hard,nie,"775,9",1
27,338,A,hard,tak,662.6,1
28,396,c,easy,1,545.6,brak
29,565,c,EASY,1,635.0,brak
30,55,A,EASY,tak,519.3,1
31,548,B,MEDIUM,tak,1452.6,5
32,58,a,EASY,tak,478.0,2
33,986,b,MEDIUM,nie,554.6,5
34,928,B,EASY,0,518.9,brak
35,425,a,medium,0,615.4,3
36,147,a,MEDIUM,0,690.2,5
37,736,c,MEDIUM,tak,832.9,5
38,146,B,HARD,0,763.7,3
39,830,c,MEDIUM,0,606.7,5
40,517,A,MEDIUM,0,1529.2,4
41,443,c,hard,0,689.2,3
42,940,a,medium,tak,720.2,5
43,163,c,EASY,0,498.8,3
44,43,B,MEDIUM,0,744.5,1
45,354,a,EASY,1,"445,0",1
46,50,c,medium,0,407.7,4
47,380,B,HARD,1,"646,7",2
48,172,b,MEDIUM,nie,469.1,2
49,202,C,EASY,1,"543,8",5
50,500,B,medium,nie,"604,4",5
51,735,b,EASY,0,536.2,1
52,898,C,MEDIUM,1,607.4,4
53,840,B,EASY,1,"716,7",3
54,417,B,hard,0,793.7,3
55,82,B,HARD,nie,"805,8",5
56,464,b,medium,nie,621.8,4
57,653,B,MEDIUM,1,662.1,1
58,246,B,hard,0,716.0,4
59,407,B,easy,0,"654,0",1
60,112,B,EASY,nie,583.3,brak
61,376,a,MEDIUM,nie,611.0,2
62,373,C,EASY,tak,621.3,4
63,252,B,medium,1,579.9,3
64,381,A,easy,tak,442.9,4
65,624,C,hard,0,653.1,5
66,998,b,MEDIUM,nie,653.0,brak
67,806,b,easy,1,698.1,2
68,644,c,MEDIUM,nie,493.1,brak
69,777,b,medium,0,413.4,3
70,281,a,HARD,tak,763.1,3
71,789,c,EASY,1,493.9,3
72,18,B,EASY,nie,585.0,3
73,668,B,easy,tak,492.0,3
74,331,B,easy,1,536.2,3
75,999,c,hard,0,611.9,4
76,1017,c,HARD,1,704.4,2
77,457,B,HARD,tak,703.6,1
78,438,A,medium,1,487.5,4
79,543,c,medium,0,523.5,4
80,33,c,hard,0,"639,2",3
81,971,c,medium,0,"540,3",1
82,145,a,medium,nie,478.1,3
83,839,B,HARD,tak,750.3,5
84,687,A,hard,0,776.5,4
85,985,b,easy,nie,365.9,4
86,865,a,medium,nie,581.6,3
87,834,b,easy,1,467.6,5
88,6,B,MEDIUM,1,"568,2",4
89,744,A,HARD,1,803.2,2
90,207,b,HARD,nie,815.5,3
91,222,C,easy,0,520.1,3
92,59,C,medium,0,448.4,4
93,610,c,hard,0,"741,3",5
94,706,c,easy,0,525.1,2
95,504,c,HARD,1,765.3,5
96,281,a,hard,tak,653.0,4
97,348,a,easy,1,385.2,4
98,26,B,medium,nie,686.9,4
99,197,A,medium,0,535.0,5
100,131,a,hard,tak,770.9,4
101,52,b,EASY,1,606.9,2
102,61,b,medium,0,679.5,3
103,14,A,HARD,1,"620,9",2
104,155,C,EASY,0,509.4,4
105,400,b,medium,1,726.1,3
106,935,b,hard,0,445.0,2
107,813,A,EASY,1,444.9,2
108,157,C,HARD,0,607.0,4
109,910,B,hard,0,676.1,5
110,979,B,medium,1,600.0,3
111,120,b,HARD,1,696.5,3
112,335,C,easy,0,"606,1",5
113,940,C,medium,tak,614.7,5
114,570,C,EASY,0,635.3,3
115,989,A,HARD,1,661.8,3
116,286,B,medium,nie,514.7,brak
117,81,C,easy,0,486.1,4
118,379,C,medium,1,660.6,5
119,34,a,MEDIUM,1,1686.4,2
120,1004,C,easy,0,551.8,4
121,1007,A,HARD,1,"628,5",5
122,315,A,HARD,1,"562,7",4
123,497,A,MEDIUM,0,555.5,3
124,710,a,easy,0,"415,7",2
125,689,c,HARD,0,"722,7",brak
126,886,B,MEDIUM,0,725.0,3
127,143,b,easy,1,418.2,5
128,150,C,hard,0,"756,3",4
129,591,B,hard,1,"646,2",2
130,326,b,MEDIUM,1,"610,1",1
131,749,c,HARD,tak,892.6,brak
132,929,A,easy,nie,"448,8",5
133,530,B,easy,nie,522.7,brak
134,391,A,HARD,0,750.2,brak
135,98,b,easy,0,"457,3",5
136,741,a,hard,1,770.6,4
137,494,A,hard,nie,787.1,5
138,381,A,hard,1,637.7,2
139,910,C,hard,0,850.2,5
140,937,B,hard,0,"785,1",3
141,357,C,medium,0,667.2,1
142,957,c,MEDIUM,tak,526.0,brak
143,179,b,easy,1,429.8,brak
144,739,A,EASY,nie,505.1,4
145,126,b,HARD,nie,"712,0",4
146,184,B,EASY,1,578.6,5
147,691,c,easy,1,606.9,5
148,910,B,HARD,0,"724,0",2
149,452,b,MEDIUM,0,592.7,3
150,509,a,hard,1,674.8,4
151,884,A,HARD,0,"1930,1",1
152,309,C,EASY,tak,586.5,5
153,519,c,HARD,0,717.9,3
154,797,A,medium,nie,1619.6,2
155,491,a,easy,0,445.8,1
156,985,b,MEDIUM,0,796.9,1
157,49,c,easy,nie,"521,4",3
158,113,C,medium,nie,704.1,2
159,707,B,MEDIUM,0,"543,1",2
160,455,B,hard,nie,744.5,5
161,752,B,easy,1,557.8,1
162,998,b,EASY,1,"526,0",3
163,807,a,HARD,0,711.5,2
164,608,c,EASY,0,508.0,4
165,943,c,hard,0,843.5,5
166,484,b,hard,0,"648,2",5
167,441,a,easy,0,582.6,4
168,274,A,MEDIUM,1,"483,5",1
169,417,A,easy,1,456.8,5
170,611,b,medium,1,620.0,5
171,544,a,medium,0,583.7,3
172,778,B,easy,tak,"456,3",1
173,702,b,HARD,tak,"591,1",1
174,640,a,EASY,nie,591.3,brak
175,65,a,MEDIUM,tak,"609,0",3
176,210,C,HARD,0,"670,1",1
177,960,b,MEDIUM,0,1724.4,2
178,334,B,EASY,nie,624.4,3
179,619,a,medium,1,522.9,2
180,778,b,hard,0,657.7,2
181,819,b,HARD,1,690.7,4
182,85,C,hard,0,708.1,1
183,401,B,MEDIUM,tak,457.8,4
184,64,B,medium,nie,602.2,5
185,248,B,EASY,nie,"428,2",2
186,27,A,MEDIUM,nie,"549,6",3
187,401,a,hard,tak,743.6,brak
188,998,b,HARD,1,693.9,brak
189,664,A,easy,1,551.7,4
190,724,b,HARD,1,708.8,5
191,160,b,medium,0,554.4,5
192,261,B,medium,1,571.9,3
193,263,A,EASY,1,532.0,3
194,321,a,EASY,tak,545.6,1
195,858,c,MEDIUM,nie,"583,5",2
196,463,C,easy,1,469.6,3
197,44,a,EASY,tak,"278,9",5
198,626,a,hard,0,809.1,4
199,686,C,hard,1,"557,1",3
200,1001,B,hard,1,"643,3",4
201,856,a,medium,1,514.2,2
202,694,a,MEDIUM,nie,546.5,2
203,34,b,medium,tak,1986.7,4
204,148,C,medium,0,"700,1",2
205,745,C,MEDIUM,1,502.6,2
206,435,c,EASY,tak,649.7,2
207,864,B,MEDIUM,tak,597.7,3
208,242,a,MEDIUM,1,598.4,brak
209,487,c,medium,nie,591.8,1
210,376,a,medium,1,578.6,1
211,736,A,medium,1,596.5,1
212,519,b,EASY,tak,597.3,3
213,643,b,medium,nie,399.0,4
214,920,B,HARD,0,768.4,5
215,679,A,medium,nie,"536,9",4
216,293,a,hard,nie,"706,9",5
217,782,b,medium,tak,1438.5,1
218,208,c,EASY,0,450.3,4
219,271,b,easy,0,599.7,3
220,705,b,easy,nie,488.7,2
221,417,B,EASY,tak,585.2,1
222,376,A,HARD,1,750.4,5
223,705,b,HARD,0,"793,5",3
224,915,B,EASY,0,"452,5",3
225,875,c,EASY,tak,453.2,1
226,647,C,MEDIUM,1,"602,7",1
227,375,C,EASY,nie,542.3,3
228,606,b,HARD,0,680.4,5
229,82,B,HARD,nie,"598,7",2
230,48,c,medium,0,519.1,3
231,857,c,HARD,0,1664.6,brak
232,862,a,HARD,1,682.8,1
233,141,C,medium,tak,"638,6",5
234,878,A,hard,1,779.1,5
235,197,C,easy,nie,532.2,5
236,278,A,medium,0,645.7,brak
237,494,C,HARD,tak,"686,1",brak
238,203,C,easy,nie,"620,0",4
239,260,c,EASY,0,"582,7",5
240,361,b,EASY,nie,"490,5",1
241,438,A,medium,nie,"628,3",5
242,337,b,hard,1,695.3,4
243,81,c,medium,tak,602.2,3
244,971,A,medium,tak,502.1,2
245,469,c,hard,1,802.0,3
246,161,b,MEDIUM,tak,680.7,brak
247,326,A,easy,nie,144.0,3
248,540,C,EASY,tak,668.9,4
249,265,B,medium,0,544.4,4
250,460,a,HARD,0,739.1,3
251,162,B,EASY,0,537.1,2
252,479,c,EASY,1,589.3,5
253,892,B,easy,0,474.1,1
254,209,c,hard,tak,661.9,4
255,417,B,medium,tak,"616,0",1
256,246,A,easy,0,379.5,5
257,4,c,medium,0,"584,9",3
258,153,A,easy,0,570.5,5
259,125,C,hard,0,"741,1",4
260,618,C,EASY,tak,414.6,3
261,476,A,easy,0,530.4,2
262,344,A,easy,tak,513.1,3
263,942,c,hard,1,"843,4",brak
264,335,A,hard,0,849.1,3
265,835,B,EASY,tak,523.5,2
266,572,B,HARD,0,796.1,3
267,603,C,medium,0,628.1,5
268,110,b,EASY,nie,609.2,3
269,776,c,medium,tak,"512,5",3
270,686,b,EASY,0,"487,7",3
271,573,B,HARD,nie,"743,2",3
272,556,c,easy,0,487.5,2
273,338,c,EASY,tak,590.9,4
274,822,b,EASY,1,"525,1",5
275,5,B,MEDIUM,0,464.0,4
276,733,c,easy,tak,466.6,2
277,495,b,HARD,0,719.7,3
278,421,C,easy,0,"622,2",1
279,298,a,medium,1,636.1,3
280,874,B,easy,0,450.1,brak
281,596,c,EASY,0,"360,3",4
282,215,c,hard,nie,"779,8",2
283,782,A,EASY,nie,"585,9",brak
284,421,C,medium,0,561.8,3
285,471,A,hard,nie,674.3,4
286,949,b,MEDIUM,0,683.1,brak
287,595,b,hard,0,"684,2",1
288,591,b,HARD,0,"670,6",4
289,405,A,easy,0,"557,3",3
290,40,C,EASY,1,"322,9",4
291,23,A,MEDIUM,0,513.5,1
292,616,C,EASY,1,616.0,2
293,948,c,medium,0,546.7,1
294,471,c,EASY,0,577.1,brak
295,185,b,easy,1,398.8,4
296,743,A,medium,0,672.9,5
297,925,C,hard,nie,689.5,brak
298,518,A,EASY,0,352.4,5
299,239,c,easy,1,501.0,3
300,1008,C,HARD,1,"673,0",1
301,689,b,easy,tak,524.3,2
302,731,C,medium,nie,655.5,3
303,466,C,easy,0,483.2,5
304,156,B,EASY,1,595.5,1
305,394,a,MEDIUM,1,600.2,1
306,114,c,easy,1,"525,4",brak
307,660,C,EASY,1,515.6,4
308,227,C,hard,1,825.9,5
309,945,A,medium,0,685.3,brak
310,72,b,MEDIUM,tak,"543,2",brak
311,1020,b,medium,0,584.3,brak
312,298,a,HARD,0,773.4,4
313,780,A,easy,nie,463.5,4
314,1011,c,EASY,tak,452.0,5
315,896,b,HARD,0,582.2,2
316,764,b,HARD,0,784.9,brak
317,85,A,hard,0,"723,5",4
318,191,A,easy,0,424.2,3
319,732,B,MEDIUM,tak,681.0,5
320,798,b,hard,0,"799,0",2
321,97,C,easy,1,431.8,3
322,848,C,medium,0,"584,8",5
323,702,B,EASY,1,645.8,4
324,37,b,EASY,tak,468.7,4
325,78,A,hard,nie,735.1,4
326,654,a,EASY,1,545.9,5
327,683,C,easy,1,1338.0,3
328,532,c,EASY,0,656.9,2
329,529,A,HARD,1,682.8,2
330,561,A,medium,1,604.5,4
331,400,c,MEDIUM,1,"610,0",3
332,379,c,easy,1,460.9,brak
333,96,C,HARD,0,799.3,5
334,242,a,EASY,0,636.1,brak
335,297,A,medium,1,611.2,3
336,109,A,MEDIUM,tak,804.6,5
337,914,C,medium,1,451.4,5
338,871,a,medium,1,617.8,2
339,329,C,medium,0,438.6,2
340,149,c,medium,1,701.5,2
341,229,B,easy,1,559.9,2
342,930,b,hard,tak,"534,8",5
343,357,b,hard,1,696.3,1
344,923,b,HARD,nie,"599,8",3
345,148,b,hard,0,"767,3",2
346,198,A,HARD,0,"751,2",1
347,164,b,medium,1,522.9,3
348,175,a,easy,1,457.8,1
349,324,B,EASY,nie,"633,6",5
350,414,a,HARD,nie,630.4,4
351,1007,B,EASY,0,516.9,4
352,199,a,hard,0,"681,4",2
353,484,A,EASY,1,568.7,brak
354,438,c,HARD,nie,656.9,1
355,969,A,HARD,tak,660.8,3
356,441,A,HARD,1,753.4,2
357,63,C,MEDIUM,0,546.7,3
358,15,b,MEDIUM,1,"653,4",brak
359,642,a,hard,0,718.3,3
360,692,A,medium,0,612.8,2
361,304,c,HARD,0,752.8,4
362,374,B,HARD,1,"512,5",2
363,757,A,MEDIUM,0,"493,3",4
364,29,C,medium,1,"519,4",5
365,712,a,HARD,1,767.6,brak
366,430,A,medium,tak,621.1,5
367,979,B,EASY,tak,520.0,2
368,575,A,HARD,nie,"669,2",1
369,559,A,HARD,tak,795.6,brak
370,993,A,HARD,tak,"597,5",3
371,1002,B,EASY,0,560.1,4
372,492,b,HARD,0,674.6,3
373,568,b,HARD,1,770.8,4
374,607,b,hard,1,609.0,5
375,327,b,easy,tak,510.6,5
376,424,a,MEDIUM,1,"601,4",3
377,319,a,medium,0,"634,8",1
378,406,c,easy,1,463.4,3
379,623,c,EASY,0,404.2,1
380,220,b,EASY,1,"638,9",1
381,92,b,medium,1,641.8,5
382,304,c,HARD,nie,603.5,1
383,602,b,MEDIUM,0,481.6,4
384,561,B,HARD,1,"695,0",brak
385,937,A,easy,1,644.5,brak
386,798,B,HARD,tak,670.6,2
387,375,c,HARD,1,773.9,3
388,454,b,EASY,0,506.6,brak
389,373,A,medium,tak,461.0,1
390,824,b,EASY,0,529.8,brak
391,689,b,EASY,1,517.8,1
392,198,C,medium,1,628.4,2
393,290,c,hard,0,"711,7",1
394,250,C,hard,0,499.9,3
395,737,c,EASY,1,501.4,1
396,871,c,MEDIUM,0,"630,1",5
397,216,A,medium,1,"617,0",1
398,80,C,hard,tak,"646,6",brak
399,586,C,medium,tak,"697,4",3
400,774,b,HARD,1,489.9,3
401,928,b,hard,tak,"748,0",brak
402,347,b,EASY,1,2083.9,5
403,471,b,medium,1,665.9,3
404,59,c,easy,1,335.3,5
405,96,a,MEDIUM,tak,639.1,3
406,853,b,HARD,nie,618.1,1
407,167,c,EASY,0,442.7,3
408,906,A,hard,nie,738.5,2
409,26,a,HARD,0,733.2,5
410,822,C,easy,0,"459,2",4
411,801,A,hard,1,"683,4",3
412,220,B,medium,1,542.4,2
413,432,a,HARD,nie,836.4,5
414,448,b,medium,1,636.7,2
415,86,a,HARD,1,"844,0",3
416,754,a,EASY,tak,594.1,brak
417,556,c,HARD,tak,"620,7",2
418,786,b,MEDIUM,tak,543.3,2
419,309,b,easy,0,1416.4,brak
420,984,b,EASY,nie,566.4,1
421,686,a,medium,0,450.8,2
422,239,b,easy,1,586.6,4
423,416,C,EASY,tak,708.6,4
424,196,b,easy,1,"1516,8",2
425,17,C,hard,nie,804.6,3
426,543,A,hard,1,694.3,1
427,887,b,MEDIUM,nie,696.7,5
428,855,a,HARD,tak,658.6,3
429,145,a,MEDIUM,0,677.4,2
430,210,C,hard,1,"739,2",3
431,839,B,MEDIUM,tak,"554,1",2
432,53,B,hard,tak,"724,7",2
433,123,B,MEDIUM,1,583.0,1
434,962,c,HARD,0,"638,8",1
435,129,b,hard,tak,713.4,5
436,260,a,hard,0,555.1,5
437,304,A,medium,0,548.6,1
438,300,A,medium,tak,673.7,brak
439,540,B,medium,1,592.5,3
440,908,c,easy,tak,408.0,3
441,180,A,HARD,nie,684.9,2
442,514,c,MEDIUM,1,513.2,5
443,487,B,medium,0,615.7,2
444,85,B,HARD,0,853.7,4
445,109,a,HARD,tak,827.3,brak
446,778,C,hard,0,597.6,brak
447,743,a,HARD,1,729.1,1
448,584,b,medium,nie,512.6,4
449,836,A,MEDIUM,0,608.1,1
450,259,C,HARD,nie,758.6,brak
451,379,C,medium,0,584.8,1
452,639,c,medium,0,611.8,3
453,491,c,hard,nie,"701,6",3
454,577,C,MEDIUM,tak,669.7,3
455,172,a,hard,1,559.3,5
456,687,C,MEDIUM,1,589.2,1
457,68,C,easy,tak,534.6,2
458,664,a,HARD,tak,694.9,5
459,17,b,EASY,tak,508.6,4
460,744,A,EASY,1,627.8,3
461,245,b,medium,nie,612.4,2
462,560,B,medium,1,659.6,5
463,210,C,EASY,1,545.9,brak
464,16,A,MEDIUM,1,589.3,3
465,933,a,MEDIUM,0,593.6,2
466,887,B,medium,1,584.1,5
467,559,c,EASY,nie,551.9,4
468,433,A,HARD,tak,"623,9",3
469,400,B,EASY,0,581.0,1
470,807,A,HARD,nie,850.9,5
471,685,B,easy,0,"590,4",5
472,512,A,easy,nie,450.7,5
473,330,A,medium,1,"433,7",1
474,356,c,medium,nie,"612,5",5
475,208,a,MEDIUM,nie,561.6,4
476,506,a,medium,0,"636,7",5
477,485,C,hard,1,713.4,1
478,616,C,easy,0,"511,9",3
479,783,A,hard,1,"733,8",2
480,28,A,medium,nie,"509,3",1
481,715,A,easy,tak,"335,0",4
482,396,b,EASY,0,648.7,4
483,725,B,MEDIUM,0,"573,1",2
484,765,A,easy,0,460.7,3
485,175,b,MEDIUM,0,559.0,3
486,829,a,easy,0,"384,8",2
487,39,b,medium,tak,"475,2",2
488,898,b,hard,tak,479.6,5
489,916,C,easy,1,491.7,4
490,454,b,MEDIUM,0,616.0,1
491,986,c,hard,nie,"756,9",2
492,868,c,hard,0,"638,6",4
493,135,c,MEDIUM,nie,679.1,4
494,287,c,easy,nie,"420,8",1
495,434,C,MEDIUM,1,562.1,3
496,788,A,EASY,tak,678.5,3
497,862,B,medium,0,"599,8",5
498,756,c,HARD,1,593.7,4
499,66,A,hard,1,715.3,5
500,728,A,hard,nie,1288.4,4
501,226,C,medium,0,545.6,1
502,708,C,hard,tak,594.2,brak
503,996,c,easy,0,"423,0",5
504,296,B,medium,tak,"552,8",5
505,426,c,medium,0,741.9,brak
506,756,C,medium,nie,"494,4",3
507,223,c,hard,tak,"554,7",4
508,905,a,MEDIUM,0,615.6,4
509,594,B,easy,0,640.6,1
510,779,B,hard,1,596.1,5
511,253,B,MEDIUM,tak,575.1,brak
512,644,a,easy,nie,439.0,3
513,241,c,HARD,1,"648,9",1
514,665,c,easy,0,"469,0",5
515,167,a,medium,1,"539,0",4
516,792,a,HARD,1,667.8,3
517,142,B,HARD,1,809.2,brak
518,79,A,easy,nie,457.5,2
519,396,C,easy,0,"522,2",1
520,428,c,HARD,1,723.6,3
521,432,C,HARD,1,770.7,1
522,161,A,hard,1,570.2,2
523,752,B,MEDIUM,tak,674.5,4
524,987,b,easy,0,625.0,5
525,755,A,HARD,nie,"541,8",1
526,757,B,HARD,tak,"549,3",3
527,237,b,easy,0,589.2,3
528,330,c,MEDIUM,1,680.9,brak
529,537,A,EASY,nie,"518,1",1
530,764,c,medium,1,672.2,1
531,459,A,EASY,tak,477.0,3
532,9,a,HARD,tak,721.4,4
533,424,C,medium,0,666.0,3
534,701,b,MEDIUM,tak,516.1,1
535,278,c,easy,0,627.0,1
536,284,B,EASY,1,"569,2",4
537,672,A,MEDIUM,nie,669.6,5
538,904,b,HARD,0,787.3,4
539,596,C,HARD,0,627.3,5
540,266,b,HARD,tak,"725,9",1
541,183,B,MEDIUM,0,"610,9",4
542,718,B,easy,tak,605.3,4
543,474,B,MEDIUM,1,553.4,4
544,943,c,EASY,0,561.8,4
545,940,c,HARD,0,"755,0",3
546,602,B,easy,1,556.9,1
547,147,a,HARD,nie,"801,3",3
548,136,c,hard,nie,753.5,brak
549,563,C,EASY,0,499.8,4
550,307,c,easy,tak,"486,7",2
551,436,c,EASY,tak,475.0,brak
552,55,a,EASY,tak,555.5,4
553,542,B,MEDIUM,1,"705,2",4
554,779,b,MEDIUM,1,624.4,4
555,432,A,easy,tak,479.2,1
556,686,c,MEDIUM,0,501.3,4
557,306,c,EASY,1,487.9,5
558,991,B,hard,0,"657,6",4
559,858,A,easy,1,518.0,4
560,857,B,easy,0,496.7,3
561,997,b,EASY,nie,487.6,1
562,101,A,easy,tak,427.2,1
563,678,b,easy,nie,615.2,1
564,412,a,MEDIUM,0,407.2,2
565,1000,C,easy,0,431.6,1
566,430,B,EASY,1,513.0,4
567,783,b,HARD,tak,642.5,3
568,168,A,medium,tak,463.8,2
569,463,B,EASY,0,455.5,4
570,302,a,hard,0,"605,3",3
571,152,a,MEDIUM,1,665.4,2
572,251,c,easy,tak,543.2,1
573,900,a,EASY,1,562.8,2
574,608,b,easy,0,445.4,brak
575,836,A,easy,1,564.7,2
576,57,A,medium,1,753.1,4
577,227,A,easy,1,605.3,1
578,440,C,medium,1,617.2,1
579,354,B,hard,0,"589,7",5
580,671,b,HARD,tak,679.8,3
581,34,B,MEDIUM,tak,677.9,3
582,670,A,HARD,1,429.6,5
583,664,b,hard,tak,751.5,brak
584,70,A,MEDIUM,tak,655.4,2
585,607,a,MEDIUM,0,624.3,4
586,889,B,HARD,0,775.5,3
587,943,b,MEDIUM,tak,"564,4",5
588,722,B,HARD,0,704.6,4
589,314,a,medium,0,396.5,brak
590,440,c,HARD,0,509.6,5
591,392,a,hard,1,714.5,4
592,1018,c,MEDIUM,1,673.6,5
593,785,b,EASY,nie,"501,9",2
594,927,B,easy,0,"437,6",1
595,1017,A,easy,0,632.1,4
596,766,b,hard,1,787.2,1
597,271,C,MEDIUM,1,"784,4",4
598,694,A,HARD,1,"653,6",2
599,550,B,medium,0,456.8,3
600,142,a,hard,nie,739.7,5
601,244,C,hard,tak,"646,9",brak
602,990,b,HARD,1,540.0,5
603,631,c,medium,1,662.1,2
604,205,a,hard,0,692.3,2
605,519,a,easy,tak,"445,8",brak
606,948,a,EASY,tak,1772.7,1
607,798,c,HARD,0,750.7,4
608,848,A,hard,0,"556,3",3
609,353,A,HARD,1,826.4,5
610,127,c,medium,tak,611.4,2
611,854,a,EASY,0,629.2,2
612,945,b,EASY,0,"473,6",1
613,918,a,MEDIUM,1,696.2,2
614,498,c,easy,0,497.0,4
615,759,a,medium,0,504.9,3
616,519,c,medium,0,617.4,5
617,118,A,HARD,1,694.1,3
618,333,c,hard,tak,513.0,1
619,175,c,easy,tak,460.4,3
620,732,A,MEDIUM,0,616.1,1
621,568,A,hard,0,669.7,2
622,547,a,hard,0,704.4,1
623,491,A,easy,tak,569.4,2
624,781,b,EASY,0,383.5,4
625,854,B,EASY,1,376.6,4
626,12,c,medium,tak,"574,7",3
627,287,b,MEDIUM,0,645.1,2
628,520,B,easy,nie,420.5,4
629,774,c,hard,0,825.6,1
630,699,c,EASY,1,399.6,1
631,822,c,MEDIUM,0,548.7,brak
632,206,A,medium,tak,"562,4",1
633,325,b,medium,0,657.4,2
634,584,a,HARD,1,"754,6",2
635,585,B,EASY,nie,607.1,1
636,117,A,MEDIUM,1,639.1,1
637,575,C,easy,0,447.1,2
638,39,A,HARD,0,735.5,5
639,976,C,easy,1,661.4,1
640,330,C,HARD,0,761.5,2
641,911,a,HARD,nie,760.2,4
642,27,b,MEDIUM,0,523.8,4
643,364,B,hard,tak,594.4,5
644,35,c,MEDIUM,nie,628.6,1
645,570,A,EASY,1,612.4,1
646,663,a,easy,1,"351,1",1
647,547,c,EASY,tak,"574,2",4
648,510,B,medium,nie,629.9,2
649,483,b,MEDIUM,0,"573,8",4
650,285,A,medium,nie,596.3,1
651,826,A,HARD,1,712.5,brak
652,882,B,easy,tak,2087.5,5
653,678,A,medium,1,482.9,4
654,575,c,EASY,nie,"443,5",4
655,435,a,hard,1,"898,7",3
656,725,C,hard,tak,950.6,4
657,810,A,easy,nie,529.0,5
658,141,b,easy,1,552.4,2
659,713,c,hard,1,555.3,brak
660,900,a,easy,nie,"481,8",5
661,439,B,easy,1,480.7,5
662,937,b,MEDIUM,nie,531.7,3
663,563,a,MEDIUM,tak,632.2,1
664,81,A,MEDIUM,1,"589,5",5
665,337,B,MEDIUM,nie,532.6,3
666,814,b,EASY,0,558.1,4
667,890,b,HARD,nie,"791,8",4
668,414,c,easy,tak,483.5,brak
669,928,c,HARD,0,"596,1",5
670,570,C,HARD,0,782.9,3
671,768,a,HARD,0,611.2,brak
672,550,a,HARD,tak,659.8,1
673,146,A,MEDIUM,0,"608,1",3
674,929,b,easy,1,"456,1",3
675,231,b,medium,nie,"632,7",brak
676,968,B,easy,0,"557,7",5
677,734,B,hard,1,625.0,5
678,366,C,easy,nie,472.6,1
679,849,B,hard,0,690.6,1
680,409,a,hard,nie,790.6,4
681,540,B,HARD,0,781.0,2
682,915,A,medium,tak,"483,6",2
683,999,b,HARD,1,799.2,3
684,595,a,EASY,0,"555,6",3
685,148,B,medium,tak,"571,7",4
686,397,b,medium,1,"685,3",1
687,821,a,easy,nie,504.7,2
688,839,B,easy,0,410.8,2
689,347,B,medium,0,560.1,2
690,534,c,medium,0,426.7,4
691,823,a,EASY,nie,661.9,5
692,905,a,easy,1,464.5,brak
693,793,b,EASY,tak,554.7,brak
694,1005,c,EASY,1,544.7,4
695,487,A,MEDIUM,0,"655,9",1
696,816,c,MEDIUM,1,"685,5",2
697,947,B,HARD,1,"681,6",2
698,378,A,medium,1,688.7,5
699,896,a,medium,1,538.7,5
700,478,A,HARD,nie,835.3,5
701,59,b,MEDIUM,nie,646.2,2
702,248,B,EASY,0,384.6,2
703,720,b,hard,1,733.1,4
704,743,A,easy,0,593.2,4
705,345,a,HARD,0,731.7,4
706,987,a,easy,1,442.1,2
707,934,c,medium,tak,"541,1",1
708,525,C,HARD,tak,722.8,1
709,660,c,HARD,tak,697.1,4
710,528,a,HARD,0,608.6,4
711,692,A,HARD,0,"698,2",4
712,126,B,HARD,nie,687.1,5
713,399,b,easy,0,485.5,brak
714,402,b,HARD,0,689.2,brak
715,835,a,HARD,1,757.5,2
716,1006,b,MEDIUM,tak,692.3,brak
717,618,A,easy,1,430.8,1
718,748,b,medium,0,774.3,brak
719,64,a,EASY,nie,440.1,3
720,952,A,hard,0,660.2,1
721,492,c,medium,1,691.7,brak
722,338,a,medium,1,"665,2",1
723,503,c,hard,0,760.2,1
724,413,b,EASY,tak,"545,9",2
725,169,C,MEDIUM,tak,"694,4",5
726,62,c,easy,0,"522,4",1
727,789,b,MEDIUM,1,694.4,1
728,405,a,MEDIUM,tak,612.6,4
729,283,c,EASY,nie,533.2,2
730,880,b,HARD,1,1975.7,brak
731,22,C,medium,nie,413.0,brak
732,889,b,hard,0,592.2,4
733,924,b,hard,nie,640.4,2
734,1003,a,HARD,1,802.3,4
735,1013,B,hard,tak,"668,0",2
736,908,a,medium,1,681.1,2
737,288,A,HARD,tak,631.8,2
738,855,A,hard,1,750.4,2
739,409,a,EASY,1,"477,7",5
740,409,B,MEDIUM,nie,2093.9,5
741,68,a,EASY,1,"394,3",3
742,50,b,EASY,1,488.8,1
743,1017,c,MEDIUM,0,585.0,1
744,129,A,hard,1,629.1,4
745,613,c,hard,0,"749,8",brak
746,925,B,easy,0,589.4,3
747,566,A,MEDIUM,nie,673.9,5
748,773,B,EASY,0,"619,8",2
749,871,b,MEDIUM,nie,651.8,3
750,213,C,HARD,nie,749.8,1
751,112,C,hard,0,605.3,2
752,638,A,easy,1,448.0,5
753,847,b,hard,nie,693.7,brak
754,493,b,medium,nie,562.5,3
755,29,C,easy,0,"582,4",2
756,930,c,medium,0,572.5,3
757,26,c,HARD,0,653.9,4
758,307,a,HARD,0,788.9,3
759,224,a,HARD,1,706.5,4
760,317,b,hard,0,"875,4",2
761,307,A,medium,1,532.8,4
762,863,b,easy,nie,547.5,2
763,522,B,HARD,nie,"665,2",4
764,655,c,EASY,nie,696.0,4
765,363,b,medium,tak,750.8,5
766,198,c,hard,1,"627,7",5
767,874,B,EASY,1,487.8,1
768,983,c,MEDIUM,tak,611.0,5
769,20,B,easy,tak,502.8,1
770,461,A,HARD,1,638.0,2
771,221,A,hard,0,"795,4",1
772,595,c,easy,nie,524.2,2
773,537,c,hard,0,541.6,5
774,130,c,medium,nie,"539,5",2
775,961,C,hard,tak,647.0,5
776,457,b,EASY,tak,530.2,1
777,314,A,medium,1,705.3,3
778,366,B,HARD,1,630.3,1
779,896,c,medium,nie,628.9,3
780,647,B,easy,nie,"498,0",5
781,688,B,medium,1,571.4,3
782,542,C,MEDIUM,1,490.2,4
783,464,b,medium,1,691.1,1
784,432,b,easy,tak,572.2,brak
785,1000,A,easy,0,691.5,brak
786,452,B,medium,0,672.5,2
787,381,b,easy,nie,"631,0",2
788,378,c,easy,1,583.0,5
789,742,C,hard,tak,631.5,5
790,583,B,EASY,1,368.8,4
791,577,C,MEDIUM,0,"606,4",2
792,855,a,EASY,0,"341,9",1
793,80,b,MEDIUM,nie,"614,1",1
794,331,A,hard,nie,727.2,4
795,677,b,HARD,1,511.4,2
796,135,B,EASY,nie,559.2,1
797,487,c,hard,1,"544,7",1
798,221,b,easy,nie,418.9,1
799,429,a,EASY,0,447.2,5
800,226,C,HARD,1,814.9,2
801,272,C,easy,nie,"557,5",3
802,67,C,HARD,tak,712.6,5
803,559,a,easy,1,601.3,3
804,350,c,HARD,0,"794,8",2
805,461,b,HARD,tak,893.9,3
806,640,B,HARD,1,713.3,2
807,463,B,medium,0,616.6,1
808,151,B,medium,1,544.6,2
809,933,b,medium,1,519.8,2
810,547,c,easy,1,596.1,1
811,514,C,hard,tak,644.7,2
812,448,b,medium,1,672.3,brak
813,614,B,MEDIUM,0,"653,6",4
814,420,b,medium,tak,653.2,5
815,59,a,hard,nie,729.8,2
816,303,b,MEDIUM,1,406.9,4
817,721,B,EASY,1,424.6,1
818,748,A,easy,tak,"416,9",2
819,494,B,easy,tak,450.5,3
820,666,C,MEDIUM,tak,757.3,4
821,645,a,easy,0,470.3,brak
822,970,B,hard,1,"1565,9",5
823,169,B,MEDIUM,0,714.1,2
824,926,a,HARD,0,688.0,2
825,521,C,hard,0,"643,3",5
826,995,c,MEDIUM,0,611.9,2
827,268,C,MEDIUM,tak,351.6,2
828,911,B,MEDIUM,0,491.8,5
829,669,b,MEDIUM,0,573.6,1
830,76,a,easy,1,523.1,5
831,172,B,MEDIUM,0,563.6,3
832,187,a,hard,1,"796,4",5
833,403,c,hard,0,486.5,5
834,205,a,easy,1,"459,2",brak
835,652,B,MEDIUM,0,594.7,brak
836,820,B,MEDIUM,1,644.1,4
837,585,A,HARD,0,618.1,4
838,265,c,HARD,0,799.3,brak
839,678,a,easy,nie,"572,8",5
840,526,a,easy,nie,416.8,3
841,172,c,easy,tak,513.8,3
842,407,b,medium,nie,665.6,5
843,496,A,hard,1,"688,2",5
844,199,C,HARD,1,856.5,1
845,301,C,medium,1,577.0,2
846,60,c,hard,1,"653,4",1
847,544,A,EASY,0,533.2,2
848,69,c,HARD,0,"900,5",1
849,58,B,easy,1,455.3,4
850,145,a,easy,nie,434.2,1
851,956,b,easy,1,525.5,4
852,579,C,easy,nie,387.1,4
853,392,a,HARD,nie,602.8,3
854,154,B,hard,1,654.1,3
855,169,A,medium,nie,"721,1",2
856,428,B,easy,0,472.6,1
857,603,c,medium,1,687.6,4
858,911,b,easy,tak,"533,1",2
859,441,A,easy,tak,505.6,2
860,893,C,easy,tak,555.3,2
861,64,C,hard,1,"693,8",4
862,465,b,hard,1,"626,7",3
863,895,B,hard,nie,716.3,1
864,165,c,hard,tak,783.0,4
865,405,c,medium,0,663.1,4
866,997,C,EASY,0,441.1,3
867,516,C,medium,1,"571,2",2
868,614,a,medium,1,568.9,5
869,780,A,hard,tak,567.4,4
870,580,B,hard,1,810.3,3
871,430,b,medium,1,506.0,4
872,290,b,MEDIUM,tak,626.3,1
873,785,C,MEDIUM,0,"599,9",1
874,211,C,hard,tak,672.6,1
875,108,A,medium,nie,"565,5",4
876,310,a,HARD,0,1632.5,5
877,272,b,medium,0,605.8,3
878,667,a,medium,0,"696,2",1
879,813,a,MEDIUM,1,"609,8",5
880,794,b,medium,tak,591.9,2
881,251,A,medium,1,"535,5",2
882,98,a,EASY,tak,"538,2",2
883,434,a,medium,nie,496.2,1
884,950,a,MEDIUM,nie,"635,8",1
885,779,A,easy,0,447.0,3
886,198,B,EASY,0,1961.0,3
887,377,c,HARD,0,784.0,4
888,354,c,HARD,0,638.1,1
889,292,c,MEDIUM,0,642.1,2
890,980,A,hard,nie,"676,1",brak
891,249,A,HARD,1,673.1,3
892,886,b,HARD,tak,802.3,3
893,762,a,medium,1,662.4,5
894,230,A,HARD,0,782.9,brak
895,351,C,medium,1,716.2,5
896,632,c,HARD,0,"741,9",brak
897,845,b,easy,tak,671.8,2
898,755,b,HARD,nie,658.0,1
899,591,b,EASY,0,510.3,3
900,404,C,hard,0,830.9,1
901,546,c,easy,0,381.8,1
902,912,b,medium,tak,591.2,5
903,508,a,easy,nie,498.8,4
904,788,B,EASY,tak,603.1,5
905,715,A,hard,tak,698.8,2
906,678,C,medium,tak,633.6,5
907,516,c,hard,nie,"713,8",5
908,655,A,HARD,0,765.6,1
909,265,c,EASY,nie,496.9,1
910,792,c,hard,0,743.7,2
911,763,A,easy,1,"552,9",1
912,223,C,easy,1,570.7,5
913,25,A,HARD,0,"563,3",1
914,634,B,MEDIUM,0,745.2,4
915,570,C,easy,nie,529.0,4
916,339,a,MEDIUM,tak,604.3,3
917,907,b,HARD,0,806.5,1
918,287,B,EASY,0,615.9,brak
919,5,B,hard,nie,1565.5,3
920,335,C,hard,1,"761,2",2
921,545,A,hard,0,721.4,4
922,326,a,hard,nie,699.2,4
923,240,c,hard,1,1942.6,2
924,1019,b,MEDIUM,0,"596,3",3
925,199,c,HARD,tak,882.9,1
926,118,a,EASY,1,540.4,3
927,504,a,MEDIUM,0,584.6,4
928,716,b,medium,0,573.7,brak
929,840,a,HARD,0,739.3,4
930,448,b,medium,0,"625,5",3
931,291,a,medium,1,"560,4",4
932,424,c,HARD,tak,616.7,5
933,256,b,easy,tak,444.3,brak
934,673,C,EASY,tak,613.7,brak
935,579,B,medium,tak,576.9,2
936,309,A,hard,0,748.4,3
937,539,C,easy,nie,571.3,5
938,488,c,hard,nie,525.5,2
939,736,c,HARD,tak,719.7,brak
940,127,a,EASY,1,474.5,3
941,167,A,MEDIUM,tak,668.9,3
942,503,B,easy,1,488.7,1
943,157,c,HARD,1,622.2,2
944,671,c,MEDIUM,1,578.6,5
945,83,a,medium,nie,1823.5,4
946,75,b,medium,1,622.2,4
947,186,c,easy,1,"401,0",1
948,75,a,easy,nie,600.7,5
949,804,a,MEDIUM,0,675.1,3
950,586,a,medium,tak,643.4,5
951,418,B,HARD,nie,"700,9",1
952,371,c,easy,0,"546,7",3
953,153,A,easy,1,"526,5",2
954,1010,b,MEDIUM,1,632.0,4
955,873,b,HARD,nie,659.9,2
956,395,a,medium,0,505.9,3
957,87,b,hard,0,959.0,3
958,183,A,hard,0,783.7,1
959,194,b,easy,0,567.6,2
960,868,c,EASY,1,588.7,1
961,760,B,hard,1,644.1,2
962,578,b,hard,1,679.8,1
963,956,C,medium,0,577.7,3
964,854,b,EASY,tak,600.8,4
965,916,A,HARD,tak,799.3,5
966,744,b,EASY,tak,"477,7",2
967,1,A,medium,1,610.9,3
968,465,c,easy,0,486.8,brak
969,667,b,MEDIUM,1,538.7,3
970,278,c,MEDIUM,0,"632,4",4
971,371,A,hard,0,"643,3",4
972,917,B,HARD,nie,"580,0",brak
973,380,a,EASY,1,"601,3",5
974,842,A,MEDIUM,1,711.7,5
975,26,c,hard,0,671.8,2
976,427,C,EASY,nie,"471,7",3
977,483,C,easy,nie,"508,0",2
978,944,b,medium,0,705.3,brak
979,85,c,hard,1,1807.0,brak
980,915,A,HARD,0,648.2,brak
981,408,c,easy,nie,424.3,1
982,766,a,MEDIUM,0,429.0,2
983,779,b,hard,0,789.8,brak
984,613,a,HARD,1,669.8,5
985,458,b,hard,tak,770.5,5
986,825,C,EASY,1,534.6,5
987,188,B,MEDIUM,1,686.8,1
988,964,C,MEDIUM,nie,"753,4",3
989,983,A,easy,0,342.4,5
990,910,C,medium,nie,529.1,brak
991,50,B,medium,1,680.6,1
992,395,a,HARD,0,671.9,5
993,231,a,EASY,tak,"563,7",1
994,798,B,medium,nie,503.9,4
995,878,b,HARD,0,635.3,5
996,355,B,MEDIUM,0,577.4,4
997,999,A,MEDIUM,nie,576.4,5
998,863,a,medium,0,662.1,2
999,758,a,medium,0,580.6,1
1000,653,B,easy,0,456.7,3
1001,569,a,hard,1,600.5,4
1002,247,A,EASY,0,"490,8",5
1003,830,a,easy,tak,"559,6",4
1004,219,A,HARD,1,747.9,1
1005,149,a,hard,1,737.5,5
1006,881,C,HARD,0,718.5,3
1007,976,B,medium,tak,605.1,5
1008,643,C,easy,0,478.6,4
1009,687,A,EASY,0,"571,4",5
1010,58,c,MEDIUM,tak,590.1,2
1011,402,a,EASY,nie,422.1,4
1012,209,A,hard,nie,772.0,5
1013,949,b,HARD,nie,527.7,3
1014,30,C,easy,1,488.7,4
1015,441,a,hard,1,727.0,5
1016,237,b,MEDIUM,tak,666.0,5
1017,415,a,EASY,1,460.9,2
1018,918,C,easy,tak,342.6,3
1019,496,a,MEDIUM,0,513.9,3
1020,135,C,easy,1,432.2,1
1021,936,B,HARD,nie,"655,1",5
1022,30,A,medium,1,714.1,3
1023,582,A,MEDIUM,0,491.0,1
1024,36,b,hard,0,"613,9",5
1025,869,C,MEDIUM,1,654.9,4
1026,825,b,MEDIUM,0,649.1,5
1027,628,a,MEDIUM,0,644.2,2
1028,94,c,MEDIUM,1,593.6,1
1029,846,c,HARD,tak,678.5,2
1030,200,a,hard,nie,694.0,2
1031,159,a,hard,0,835.1,1
1032,468,a,hard,1,"677,6",2
1033,414,b,MEDIUM,1,604.8,3
1034,42,C,MEDIUM,1,"682,1",5
1035,142,A,HARD,0,696.9,3
1036,674,c,EASY,0,583.7,1
1037,82,a,easy,0,534.0,1
1038,836,B,easy,tak,413.2,5
1039,14,a,hard,1,816.0,2
1040,889,A,easy,0,531.9,brak
1041,714,B,hard,nie,"681,9",2
1042,1007,c,EASY,1,521.0,1
1043,696,b,EASY,1,539.8,1
1044,387,B,easy,1,625.7,2
1045,361,A,easy,0,544.0,4
1046,662,C,MEDIUM,nie,551.3,brak
1047,872,a,medium,0,570.3,2
1048,250,c,MEDIUM,nie,671.2,brak
1049,169,A,EASY,1,"546,7",1
1050,206,a,EASY,1,"498,7",4
1051,650,B,EASY,tak,534.7,5
1052,267,c,medium,1,724.9,2
1053,305,b,MEDIUM,0,489.4,3
1054,469,C,HARD,0,694.1,5
1055,171,B,MEDIUM,nie,435.6,5
1056,815,B,HARD,0,1317.1,brak
1057,131,B,MEDIUM,nie,527.2,4
1058,849,C,hard,tak,635.6,4
1059,589,C,hard,1,"698,2",5
1060,215,C,EASY,0,491.3,2
1061,187,c,HARD,1,804.7,4
1062,654,a,MEDIUM,0,453.4,4
1063,151,A,medium,0,778.7,brak
1064,885,a,easy,1,"512,8",5
1065,70,A,HARD,nie,804.0,1
1066,130,C,EASY,1,574.8,5
1067,771,B,HARD,0,735.2,5
1068,414,c,HARD,tak,716.9,2
1069,686,A,HARD,0,"740,7",5
1070,593,C,hard,nie,875.9,5
1071,907,c,EASY,nie,526.1,4
1072,994,c,easy,0,"626,3",3
1073,565,A,MEDIUM,0,"695,1",4
1074,557,A,EASY,1,224.8,3
1075,218,C,HARD,0,"605,3",5
1076,307,B,HARD,0,"618,3",brak
1077,286,b,hard,1,770.6,5
1078,17,B,hard,0,741.6,2
1079,524,A,medium,1,516.0,4
1080,483,a,medium,nie,622.6,3
1081,8,C,easy,0,433.6,3
1082,257,B,hard,1,926.5,3
1083,836,C,HARD,0,"702,6",3
1084,148,a,medium,tak,"372,3",5
1085,77,b,easy,0,535.8,2
1086,619,b,easy,1,"454,8",1
1087,647,A,easy,0,"556,5",5
1088,63,C,MEDIUM,0,716.4,5
1089,976,C,HARD,1,"749,0",5
1090,475,a,MEDIUM,tak,"568,6",2
1091,410,C,medium,tak,617.2,5
1092,209,b,hard,nie,659.3,1
1093,803,c,easy,0,563.7,2
1094,480,C,MEDIUM,0,667.9,5
1095,542,c,easy,1,517.7,4
1096,42,B,HARD,1,619.0,1
1097,560,C,hard,0,636.6,brak
1098,797,c,hard,1,"710,1",4
1099,698,b,hard,tak,662.8,1
1100,784,c,MEDIUM,0,"548,9",4
1101,254,a,easy,0,506.9,1
1102,365,B,HARD,1,736.3,1
1103,802,C,HARD,1,643.4,1
1104,840,a,MEDIUM,nie,"502,3",brak
1105,897,a,EASY,nie,599.1,2
1106,933,C,HARD,1,624.0,5
1107,725,A,HARD,0,763.6,1
1108,762,C,HARD,1,846.2,2
1109,120,b,easy,0,"559,7",1
1110,760,b,HARD,1,755.6,2
1111,34,B,hard,tak,698.1,3
1112,782,b,hard,tak,631.4,5
1113,610,b,HARD,0,794.5,4
1114,813,C,EASY,0,418.7,brak
1115,395,A,hard,nie,759.7,4
1116,952,A,hard,1,643.9,5
1117,1012,b,HARD,nie,"635,1",4
1118,870,a,medium,0,661.4,3
1119,92,c,EASY,nie,663.7,brak
1120,574,b,hard,1,639.8,3
1121,718,c,EASY,1,591.5,1
1122,532,a,hard,1,740.8,2
1123,124,A,EASY,0,446.2,3
1124,42,A,HARD,1,"725,0",5
1125,52,c,HARD,1,754.4,2
1126,892,C,HARD,nie,564.8,brak
1127,754,b,easy,0,496.8,3
1128,149,C,MEDIUM,1,573.5,4
1129,765,b,MEDIUM,0,674.9,5
1130,788,b,EASY,0,593.2,5
1131,948,c,MEDIUM,1,"544,7",3
1132,859,a,HARD,0,665.1,1
1133,485,c,hard,1,"795,8",5
1134,478,c,EASY,tak,"457,8",1
1135,477,A,easy,tak,546.0,3
1136,366,C,EASY,nie,481.4,2
1137,955,A,easy,0,"409,3",4
1138,181,a,MEDIUM,tak,572.9,5
1139,564,a,hard,1,644.6,1
1140,243,C,hard,1,779.4,2
1141,886,c,EASY,1,"689,4",3
1142,592,b,HARD,1,774.4,5
1143,808,c,medium,0,1836.4,1
1144,928,A,easy,0,"658,4",1
1145,279,B,MEDIUM,1,700.8,1
1146,617,a,medium,1,749.6,3
1147,382,B,EASY,nie,595.1,brak
1148,884,A,HARD,tak,633.1,brak
1149,830,a,EASY,1,461.0,2
1150,288,C,easy,0,"574,1",1
1151,413,C,hard,nie,735.0,4
1152,651,A,EASY,1,"791,9",3
1153,614,c,easy,0,"512,9",1
1154,40,b,EASY,0,698.6,brak
1155,309,C,HARD,0,602.0,4
1156,350,a,easy,nie,370.7,2
1157,345,A,HARD,1,762.0,3
1158,965,b,EASY,1,724.4,3
1159,647,c,easy,tak,374.7,1
1160,113,C,HARD,1,"626,1",2
1161,836,B,HARD,1,701.5,brak
1162,398,C,HARD,tak,"671,4",3
1163,358,A,medium,1,"526,8",1
1164,357,c,EASY,1,730.5,5
1165,176,a,medium,1,"617,4",4
1166,47,A,medium,1,592.6,5
1167,610,b,MEDIUM,1,491.5,2
1168,591,A,MEDIUM,1,489.9,5
1169,832,a,EASY,0,"721,1",1
1170,210,A,MEDIUM,0,682.6,5
1171,349,B,HARD,0,1212.7,4
1172,450,b,HARD,1,712.6,2
1173,975,b,easy,tak,525.1,2
1174,236,C,MEDIUM,tak,681.6,1
1175,933,A,hard,0,"747,5",4
1176,550,a,hard,tak,765.5,1
1177,787,a,HARD,0,560.7,4
1178,282,c,medium,0,663.1,4
1179,97,B,EASY,nie,537.8,2
1180,647,a,HARD,0,"725,5",1
1181,565,C,HARD,nie,698.5,4
1182,473,c,easy,1,417.8,5
1183,177,a,MEDIUM,0,"548,9",2
1184,430,a,HARD,0,1965.5,2
1185,764,C,medium,1,737.1,5
1186,645,C,medium,tak,497.9,3
1187,515,C,HARD,nie,740.0,1
1188,236,C,MEDIUM,nie,518.4,4
1189,569,B,easy,1,472.7,5
1190,888,A,EASY,tak,440.8,2
1191,762,b,EASY,tak,455.1,5
1192,614,C,easy,nie,1621.5,4
1193,958,b,EASY,0,"617,5",4
1194,868,C,medium,0,397.1,2
1195,239,b,MEDIUM,1,667.7,5
1196,700,A,HARD,0,"497,5",4
1197,566,A,HARD,0,741.9,3
1198,164,a,easy,1,420.7,5
1199,120,b,MEDIUM,1,685.1,5
1200,632,a,EASY,0,514.7,1
1201,361,A,medium,tak,"639,6",4
1202,778,C,hard,tak,619.7,3
1203,588,C,medium,nie,448.5,brak
1204,924,A,easy,1,636.2,3
1205,540,a,MEDIUM,0,606.4,4
1206,971,c,medium,tak,561.7,1
1207,841,C,easy,1,563.7,4
1208,371,C,MEDIUM,tak,614.4,4
1209,445,c,easy,nie,407.9,4
1210,505,B,HARD,nie,755.6,5
1211,459,C,HARD,0,"785,1",3
1212,755,B,medium,nie,663.2,1
1213,494,B,EASY,tak,"613,8",5
1214,160,c,medium,nie,1999.7,4
1215,877,B,EASY,nie,506.0,1
1216,209,B,easy,1,520.2,4
1217,504,C,HARD,1,538.6,5
1218,574,A,MEDIUM,1,"703,8",brak
1219,232,c,MEDIUM,tak,"613,6",brak
1220,14,c,hard,nie,704.0,5
1221,705,B,HARD,nie,803.4,1
1222,591,B,medium,1,"517,2",5
1223,782,B,MEDIUM,0,"749,9",3
1224,61,a,hard,nie,772.9,5
1225,508,a,hard,1,638.7,2
1226,15,C,MEDIUM,nie,704.6,4
1227,420,c,medium,0,471.1,3
1228,183,A,easy,nie,"584,8",2
1229,319,b,MEDIUM,1,632.7,5
1230,975,a,hard,0,726.1,4
1231,866,b,HARD,0,"511,9",1
1232,105,b,HARD,0,"519,5",4
1233,940,a,MEDIUM,tak,657.9,3
1234,617,B,hard,0,698.4,4
1235,68,B,EASY,nie,595.2,3
1236,759,c,EASY,0,427.0,brak
1237,750,B,medium,1,621.7,5
1238,999,b,medium,0,622.1,4
1239,696,C,EASY,tak,558.2,1
1240,758,A,EASY,0,503.3,5
1241,983,A,easy,0,595.8,1
1242,841,b,medium,1,687.6,4
1243,959,c,MEDIUM,1,565.8,2
1244,237,b,EASY,0,600.4,3
1245,753,b,hard,0,731.6,4
1246,342,b,MEDIUM,0,"498,3",4
1247,490,C,HARD,0,878.2,1
1248,337,C,hard,0,779.1,2
1249,271,B,easy,1,400.1,2
1250,768,B,MEDIUM,nie,"671,7",4
1251,215,c,EASY,0,"639,9",2
1252,38,a,EASY,0,"525,6",1
1253,3,A,MEDIUM,tak,1913.5,5
1254,698,c,easy,nie,1982.3,3
1255,148,B,hard,tak,"645,6",4
1256,91,B,easy,tak,"615,8",1
1257,564,C,HARD,0,633.6,3
1258,998,a,HARD,0,847.1,4
1259,716,A,hard,1,673.0,brak
1260,598,a,easy,1,"663,1",2
1261,502,c,MEDIUM,0,670.8,4
1262,434,C,hard,tak,737.6,brak
1263,254,A,EASY,tak,585.2,2
1264,396,c,easy,0,472.7,2
1265,1013,B,easy,tak,"385,5",brak
1266,465,b,EASY,0,572.6,5
1267,864,c,MEDIUM,tak,"647,4",5
1268,97,A,medium,0,609.4,2
1269,448,A,MEDIUM,tak,585.1,5
1270,225,A,HARD,1,871.8,3
1271,649,B,MEDIUM,nie,1905.1,brak
1272,190,C,EASY,nie,716.4,brak
1273,793,C,HARD,tak,609.0,5
1274,92,c,HARD,1,688.8,3
1275,605,c,HARD,0,636.2,4
1276,233,C,medium,1,489.8,2
1277,677,A,easy,0,689.0,5
1278,566,b,EASY,tak,"496,6",4
1279,249,A,easy,0,592.2,3
1280,556,C,easy,1,466.8,2
1281,442,c,MEDIUM,0,705.3,brak
1282,575,B,easy,1,"491,8",3
1283,138,B,medium,0,520.8,3
1284,886,c,hard,nie,679.4,5
1285,886,c,medium,tak,"559,5",3
1286,517,c,hard,0,638.1,1
1287,588,B,easy,0,"445,2",2
1288,512,b,MEDIUM,0,548.9,3
1289,365,B,easy,0,532.4,2
1290,155,A,medium,1,634.3,2
1291,22,B,easy,nie,"466,6",2
1292,446,C,medium,0,581.1,brak
1293,290,b,MEDIUM,0,513.3,1
1294,859,c,EASY,1,"561,7",5
1295,494,c,medium,nie,620.3,5
1296,303,B,hard,1,"583,2",1
1297,751,A,hard,1,2089.2,2
1298,56,B,medium,nie,608.5,5
1299,44,a,medium,nie,"481,3",3
1300,709,a,easy,0,1730.7,3
1301,614,C,HARD,0,715.5,4
1302,412,a,hard,nie,672.9,2
1303,106,B,medium,0,523.1,4
1304,899,a,easy,0,578.9,1
1305,229,C,MEDIUM,nie,604.4,brak
1306,278,c,medium,tak,601.4,4
1307,744,B,easy,1,557.2,5
1308,197,a,medium,tak,"590,2",5
1309,67,c,EASY,1,550.7,2
1310,886,a,MEDIUM,tak,614.5,5
1311,357,b,medium,0,"410,9",3
1312,200,C,easy,0,"401,2",5
1313,990,B,medium,tak,597.3,2
1314,566,b,HARD,0,664.6,5
1315,376,C,HARD,0,846.2,3
1316,457,c,HARD,0,727.5,3
1317,421,c,HARD,0,644.0,3
1318,534,C,HARD,nie,808.2,1
1319,416,A,easy,1,"505,6",4
1320,99,B,MEDIUM,1,545.2,4
1321,946,C,easy,tak,383.9,2
1322,745,c,MEDIUM,1,688.3,brak
1323,842,a,hard,1,613.8,brak
1324,181,A,HARD,0,748.0,4
1325,616,b,hard,nie,"794,0",1
1326,76,a,medium,0,705.1,2
1327,363,C,EASY,0,550.8,1
1328,510,B,EASY,1,691.6,4
1329,421,b,easy,tak,502.1,4
1330,948,b,HARD,tak,866.6,1
1331,295,c,EASY,tak,368.8,brak
1332,261,C,easy,tak,502.3,brak
1333,584,a,medium,nie,573.9,brak
1334,920,a,hard,tak,774.3,5
1335,143,a,EASY,1,327.9,brak
1336,557,A,EASY,1,"560,7",5
1337,612,B,EASY,nie,584.9,1
1338,195,A,hard,tak,608.5,4
1339,753,A,medium,tak,732.0,4
1340,653,C,HARD,0,662.4,2
1341,582,B,hard,0,775.6,1
1342,971,a,easy,tak,"629,5",5
1343,358,a,HARD,0,733.3,3
1344,1017,a,MEDIUM,1,562.1,brak
1345,969,C,hard,nie,565.0,4
1346,586,C,EASY,tak,582.5,2
1347,881,B,MEDIUM,1,492.2,4
1348,874,c,easy,tak,"505,9",3
1349,59,b,MEDIUM,1,622.1,4
1350,46,c,EASY,1,573.3,2
1351,31,a,HARD,tak,824.7,brak
1352,787,B,easy,1,597.4,2
1353,800,c,hard,0,604.4,3
1354,974,B,easy,1,624.9,2
1355,103,c,easy,0,451.1,5
1356,928,B,medium,tak,594.4,1
1357,978,a,MEDIUM,nie,480.0,brak
1358,923,c,easy,0,431.0,5
1359,896,C,MEDIUM,0,496.4,4
1360,708,B,hard,0,711.9,brak
1361,221,C,hard,0,"877,8",5
1362,920,A,EASY,0,420.3,2
1363,40,c,hard,0,"600,5",4
1364,670,c,EASY,1,"594,3",3
1365,600,b,EASY,0,"395,1",1
1366,754,b,medium,1,605.6,1
1367,925,C,medium,1,589.0,4
1368,694,B,medium,1,612.8,1
1369,372,c,easy,nie,624.4,4
1370,225,B,MEDIUM,tak,"578,3",1
1371,28,A,EASY,1,"596,2",1
1372,83,B,easy,0,349.1,2
1373,910,b,HARD,0,667.1,4
1374,28,B,hard,1,"756,8",1
1375,149,A,medium,tak,444.8,5
1376,46,A,HARD,0,"663,2",5
1377,44,a,hard,0,"850,6",2
1378,740,a,HARD,1,"804,0",2
1379,380,C,hard,tak,673.4,brak
1380,915,C,medium,tak,537.6,brak
1381,700,c,EASY,0,561.9,4
1382,313,b,medium,1,654.1,2
1383,1014,A,MEDIUM,0,"565,6",1
1384,720,a,easy,1,593.9,3
1385,135,a,medium,0,"705,4",1
1386,699,C,hard,tak,692.1,3
1387,351,B,MEDIUM,tak,"583,8",brak
1388,740,B,hard,1,570.0,5
1389,311,c,medium,tak,"531,8",5
1390,196,c,EASY,1,457.7,5
1391,207,c,MEDIUM,1,638.6,5
1392,515,B,medium,1,739.0,3
1393,963,A,MEDIUM,0,550.7,3
1394,595,a,EASY,1,513.2,3
1395,936,b,MEDIUM,1,608.6,3
1396,887,b,easy,0,"515,5",4
1397,266,A,hard,1,"640,5",1
1398,182,a,HARD,1,601.7,3
1399,285,C,medium,0,"801,2",5
1400,878,A,medium,tak,763.1,2
1401,254,A,MEDIUM,nie,722.2,1
1402,925,C,HARD,1,"733,0",4
1403,78,b,MEDIUM,nie,662.6,2
1404,226,C,easy,tak,520.9,4
1405,210,b,HARD,1,"569,2",2
1406,307,c,medium,0,730.9,5
1407,336,b,medium,tak,"689,1",3
1408,481,a,EASY,1,475.6,5
1409,669,c,medium,1,473.4,4
1410,340,B,easy,0,605.2,4
1411,671,A,EASY,tak,534.5,2
1412,735,b,MEDIUM,1,636.6,5
1413,948,A,HARD,0,"915,6",1
1414,904,A,EASY,0,579.5,brak
1415,704,c,MEDIUM,0,"461,9",1
1416,611,c,HARD,1,618.4,1
1417,239,c,hard,0,729.4,4
1418,506,a,hard,nie,629.8,1
1419,700,c,easy,0,"602,7",2
1420,390,c,easy,1,647.3,5
1421,471,b,medium,1,"510,7",4
1422,977,b,medium,1,555.6,4
1423,922,a,easy,1,582.8,1
1424,771,C,HARD,nie,581.9,1
1425,638,B,MEDIUM,1,627.9,5
1426,632,C,hard,1,737.2,5
1427,50,c,HARD,1,529.5,1
1428,333,a,medium,tak,756.5,brak
1429,678,C,hard,0,841.2,1
1430,408,B,easy,1,562.4,4
1431,810,C,easy,tak,539.1,2
1432,258,B,medium,0,559.7,3
1433,404,b,EASY,0,656.6,4
1434,997,B,EASY,nie,548.6,3
1435,891,a,MEDIUM,0,"494,3",1
1436,484,b,MEDIUM,0,"591,8",2
1437,105,a,hard,tak,648.3,4
1438,987,C,MEDIUM,1,650.4,3
1439,116,B,medium,0,"699,1",5
1440,426,C,MEDIUM,nie,595.6,brak
1441,61,a,easy,1,297.8,2
1442,665,B,easy,1,510.8,1
1443,399,B,HARD,1,799.2,3
1444,852,C,hard,0,642.6,4
1445,491,A,EASY,0,530.8,1
1446,66,B,hard,1,761.6,2
1447,245,B,hard,1,761.6,3
1448,905,C,medium,1,557.0,brak
1449,572,B,MEDIUM,1,556.9,3
1450,770,A,MEDIUM,1,596.4,brak
1451,515,b,easy,1,557.5,5
1452,318,B,easy,1,720.5,3
1453,595,c,hard,0,"650,0",2
1454,64,a,hard,0,652.7,2
1455,269,a,EASY,0,394.5,4
1456,199,B,EASY,tak,457.9,5
1457,490,A,MEDIUM,1,640.3,2
1458,539,c,easy,1,613.0,brak
1459,663,B,HARD,tak,"785,9",1
1460,51,C,MEDIUM,nie,675.3,5
1461,437,C,HARD,0,"681,0",4
1462,606,C,EASY,nie,604.3,3
1463,174,B,MEDIUM,nie,442.5,4
1464,24,a,medium,1,690.1,3
1465,755,C,hard,1,579.0,2
1466,889,A,hard,0,635.1,5
1467,872,C,MEDIUM,0,565.2,brak
1468,641,C,hard,0,"729,4",2
1469,273,c,hard,0,705.0,5
1470,165,a,medium,0,"672,2",3
1471,619,A,EASY,1,563.4,5
1472,702,C,hard,tak,"628,3",brak
1473,356,C,easy,nie,"456,2",5
1474,874,c,hard,1,701.7,1
1475,649,B,EASY,1,470.7,brak
1476,313,A,MEDIUM,1,"543,1",4
1477,836,B,EASY,0,399.1,brak
1478,908,B,hard,0,"681,6",5
1479,510,a,medium,0,732.2,5
1480,5,b,EASY,tak,473.6,4
1481,332,a,medium,0,644.1,5
1482,748,B,hard,1,"635,6",3
1483,28,a,MEDIUM,1,"608,5",1
1484,823,b,MEDIUM,1,550.2,2
1485,536,b,HARD,tak,637.1,5
1486,182,a,HARD,0,"635,7",1
1487,295,b,medium,0,640.4,brak
1488,840,A,MEDIUM,0,"607,2",3
1489,913,B,medium,0,"617,2",3
1490,63,a,MEDIUM,1,656.0,1
1491,819,C,medium,0,636.4,1
1492,155,B,hard,1,680.2,brak
1493,583,C,HARD,0,711.6,4
1494,424,a,EASY,0,487.8,brak
1495,566,b,hard,0,551.9,1
1496,406,B,hard,nie,745.4,5
1497,266,B,EASY,1,"469,6",2
1498,32,b,HARD,0,832.1,brak
1499,750,b,hard,0,"567,6",4
1500,553,c,medium,0,628.0,3
1501,587,A,MEDIUM,1,668.9,4
1502,925,c,easy,tak,524.8,4
1503,1000,C,MEDIUM,0,"691,6",4
1504,818,c,MEDIUM,1,"700,3",5
1505,639,c,MEDIUM,0,569.5,5
1506,599,c,medium,1,468.1,1
1507,685,B,medium,1,575.5,1
1508,84,c,medium,0,2083.1,2
1509,470,a,EASY,1,570.6,5
1510,169,C,MEDIUM,tak,697.4,brak
1511,694,c,HARD,tak,746.0,1
1512,179,A,medium,0,617.5,3
1513,56,c,EASY,1,372.0,5
1514,495,c,hard,1,715.2,2
1515,232,a,medium,1,557.3,1
1516,308,a,MEDIUM,0,597.7,2
1517,339,A,HARD,nie,750.5,4
1518,1012,A,HARD,0,751.9,5
1519,465,c,MEDIUM,tak,"1348,4",5
1520,24,b,EASY,0,713.7,1
1521,755,A,medium,0,589.4,1
1522,144,a,medium,0,"617,4",4
1523,1010,b,medium,0,"1735,6",brak
1524,573,c,hard,nie,"664,2",4
1525,248,C,medium,1,666.1,5
1526,96,a,medium,1,470.7,4
1527,200,b,hard,0,777.2,brak
1528,13,B,medium,0,627.9,3
1529,615,A,MEDIUM,0,634.3,4
1530,906,A,medium,0,695.1,4
1531,200,a,EASY,nie,474.7,3
1532,899,c,easy,1,"553,8",1
1533,696,c,medium,1,"528,1",3
1534,512,a,EASY,0,499.5,2
1535,982,c,easy,nie,"387,7",5
1536,25,c,MEDIUM,tak,"688,7",3
1537,123,c,MEDIUM,1,673.4,3
1538,155,C,MEDIUM,0,554.7,3
1539,281,A,medium,tak,498.4,3
1540,25,c,easy,0,1539.6,1
1541,337,c,HARD,0,789.2,4
1542,648,a,EASY,1,"485,7",4
1543,477,B,HARD,1,"776,0",3
1544,376,C,medium,nie,626.8,1
1545,627,A,medium,nie,650.3,5
1546,966,a,EASY,1,"550,2",3
1547,90,c,hard,tak,"679,4",5
1548,340,B,HARD,0,722.2,5
1549,193,c,EASY,0,"505,3",1
1550,459,C,easy,1,"471,7",3
1551,465,B,HARD,0,471.8,2
1552,105,B,hard,1,686.9,5
1553,919,B,medium,0,658.8,1
1554,521,b,medium,0,678.1,2
1555,206,a,easy,tak,449.3,5
1556,637,a,MEDIUM,0,"638,9",brak
1557,972,a,HARD,0,676.3,4
1558,907,A,MEDIUM,tak,619.2,1
1559,223,A,EASY,nie,"472,2",5
1560,481,A,EASY,nie,464.1,1
1561,818,B,easy,tak,"496,0",3
1562,573,B,easy,0,324.8,1
1563,56,B,MEDIUM,0,"647,2",1
1564,677,A,easy,0,597.4,5
1565,78,b,easy,1,415.8,4
1566,957,A,EASY,nie,547.0,5
1567,696,c,EASY,tak,493.9,1
1568,680,C,HARD,nie,775.6,3
1569,869,A,HARD,0,686.4,4
1570,779,a,EASY,1,639.4,1
1571,597,B,easy,nie,578.9,4
1572,119,a,medium,0,723.9,2
1573,443,B,easy,tak,"626,5",3
1574,4,b,MEDIUM,tak,682.6,3
1575,256,C,HARD,1,777.9,3
1576,260,b,EASY,tak,595.6,4
1577,224,b,hard,1,679.3,1
1578,1020,B,MEDIUM,tak,524.7,4
1579,816,A,medium,tak,619.8,2
1580,628,B,hard,nie,693.8,5
1581,835,a,easy,nie,413.0,5
1582,418,b,medium,1,435.1,4
1583,134,A,MEDIUM,tak,710.5,1
1584,920,b,MEDIUM,1,716.2,1
1585,652,C,EASY,1,419.7,1
1586,9,B,easy,1,455.4,brak
1587,157,C,HARD,nie,861.6,3
1588,919,c,medium,1,662.1,5
1589,179,b,easy,1,543.8,4
1590,188,b,easy,0,523.3,3
1591,509,b,HARD,tak,619.3,2
1592,866,b,hard,0,611.3,3
1593,323,a,MEDIUM,tak,"621,8",brak
1594,366,c,HARD,0,720.5,1
1595,295,C,hard,0,664.6,5
1596,745,b,medium,tak,553.7,2
1597,775,A,HARD,1,723.6,2
1598,948,b,hard,nie,804.5,4
1599,219,c,hard,nie,766.8,1
1600,248,a,HARD,1,674.7,5
1601,280,B,EASY,1,"418,4",2
1602,357,B,EASY,0,"525,5",5
1603,204,b,easy,tak,665.0,3
1604,523,b,easy,tak,"515,1",5
1605,540,A,easy,0,449.7,4
1606,445,a,EASY,1,465.3,3
1607,133,c,MEDIUM,1,520.4,1
1608,1003,B,easy,nie,"504,0",1
1609,722,A,medium,nie,683.4,4
1610,914,c,hard,0,719.0,2
1611,184,c,medium,0,541.1,3
1612,651,a,HARD,0,"663,5",brak
1613,205,b,hard,tak,811.8,1
1614,26,a,hard,nie,819.2,5
1615,303,C,MEDIUM,0,694.5,1
1616,351,C,easy,1,"393,0",2
1617,857,a,HARD,0,776.3,5
1618,600,C,EASY,1,"604,2",brak
1619,121,b,MEDIUM,1,"514,8",1
1620,52,a,medium,1,514.2,1
1621,989,C,hard,1,752.9,brak
1622,568,b,hard,tak,"749,4",4
1623,182,C,easy,1,547.0,4
1624,265,B,EASY,0,515.4,1
1625,794,c,hard,1,606.4,3
1626,276,B,easy,0,461.9,brak
1627,985,c,MEDIUM,tak,723.6,5
1628,637,A,HARD,0,696.6,1
1629,776,c,HARD,tak,641.4,4
1630,1000,B,EASY,0,"505,7",3
1631,941,a,EASY,1,640.6,5
1632,27,C,MEDIUM,0,"690,3",3
1633,442,a,easy,nie,416.9,4
1634,48,C,medium,0,750.0,2
1635,350,A,HARD,1,660.8,1
1636,393,b,HARD,0,"688,7",1
1637,529,C,MEDIUM,0,541.9,2
1638,485,b,EASY,0,"630,8",4
1639,146,B,MEDIUM,0,"679,5",brak
1640,857,b,EASY,1,473.9,4
1641,153,A,HARD,1,"1792,2",4
1642,772,a,medium,tak,636.3,1
1643,495,C,hard,tak,590.2,4
1644,684,c,MEDIUM,nie,637.6,5
1645,450,a,EASY,tak,"499,3",1
1646,366,C,EASY,nie,656.2,5
1647,180,C,MEDIUM,nie,535.4,5
1648,415,a,EASY,1,"463,7",5
1649,119,c,easy,tak,"433,9",4
1650,723,a,easy,1,467.6,5
1651,825,C,medium,1,"605,2",5
1652,131,A,easy,nie,575.3,5
1653,975,B,HARD,1,695.2,5
1654,98,A,EASY,nie,638.7,4
1655,939,b,hard,1,776.6,5
1656,617,b,EASY,1,684.2,5
1657,460,A,EASY,nie,"628,6",5
1658,440,a,EASY,1,"517,2",1
1659,633,a,easy,0,630.9,3
1660,492,A,hard,0,1484.4,5
1661,534,A,easy,1,"480,9",3
1662,372,c,hard,0,"672,0",4
1663,177,c,medium,nie,548.2,brak
1664,583,a,EASY,1,254.9,5
1665,183,a,MEDIUM,nie,"361,5",5
1666,589,c,HARD,1,572.0,3
1667,221,A,MEDIUM,0,513.8,4
1668,215,A,MEDIUM,0,659.8,5
1669,89,c,HARD,nie,679.6,3
1670,176,a,HARD,0,633.4,5
1671,546,c,MEDIUM,1,529.7,brak
1672,364,C,easy,1,1218.1,5
1673,359,c,HARD,nie,787.1,5
1674,992,B,EASY,tak,445.2,brak
1675,532,c,easy,0,552.6,3
1676,779,B,EASY,nie,"511,9",1
1677,118,C,HARD,0,"769,1",2
1678,408,b,MEDIUM,1,573.3,2
1679,417,A,HARD,tak,560.9,3
1680,341,A,HARD,0,688.3,2
1681,366,a,MEDIUM,nie,"546,9",1
1682,720,C,easy,0,590.4,1
1683,713,C,MEDIUM,nie,"564,3",4
1684,568,b,MEDIUM,nie,604.1,brak
1685,487,A,HARD,1,"647,4",3
1686,162,A,medium,tak,448.8,4
1687,920,B,EASY,0,539.6,brak
1688,476,A,EASY,tak,513.1,1
1689,144,a,EASY,nie,507.9,5
1690,484,A,EASY,1,512.5,4
1691,54,C,medium,0,559.3,5
1692,949,A,HARD,1,1690.6,4
1693,434,b,HARD,nie,632.1,4
1694,45,B,medium,0,625.9,3
1695,810,C,hard,nie,668.4,3
1696,71,a,medium,nie,704.1,4
1697,931,A,MEDIUM,nie,685.9,1
1698,549,C,hard,1,691.4,2
1699,142,C,HARD,0,"632,6",1
1700,846,c,easy,nie,497.1,1
1701,262,b,hard,tak,785.2,4
1702,441,c,EASY,tak,575.0,2
1703,410,A,MEDIUM,0,712.9,4
1704,902,b,MEDIUM,0,542.0,brak
1705,357,B,medium,0,"667,5",5
1706,801,a,HARD,nie,808.4,4
1707,127,C,HARD,0,628.7,5
1708,137,b,medium,0,608.0,4
1709,842,c,MEDIUM,0,"583,5",3
1710,210,B,medium,0,520.9,4
1711,538,C,hard,1,"752,4",3
1712,573,c,medium,nie,641.1,5
1713,364,C,easy,tak,419.8,1
1714,102,c,HARD,1,"1379,3",5
1715,933,A,medium,tak,615.1,3
1716,24,C,EASY,1,472.3,5
1717,161,A,MEDIUM,0,462.8,4
1718,239,c,hard,0,656.4,3
1719,611,a,EASY,nie,598.2,1
1720,125,b,easy,tak,436.0,1
1721,341,B,medium,1,671.7,1
1722,915,B,MEDIUM,tak,551.5,1
1723,355,c,EASY,0,638.6,2
1724,552,a,MEDIUM,nie,551.8,3
1725,556,A,HARD,1,"779,8",4
1726,546,B,hard,tak,616.2,4
1727,1018,A,EASY,0,"514,3",3
1728,850,b,HARD,nie,754.4,2
1729,578,C,MEDIUM,0,629.5,4
1730,824,A,EASY,1,"703,9",3
1731,550,A,medium,nie,612.1,4
1732,947,a,hard,1,705.1,3
1733,338,b,hard,0,709.1,brak
1734,686,c,MEDIUM,1,479.6,5
1735,440,a,medium,0,697.2,5
1736,545,A,HARD,1,"734,7",5
1737,976,b,medium,1,633.4,1
1738,246,A,HARD,1,600.4,2
1739,260,C,EASY,nie,491.0,5
1740,377,a,HARD,1,770.0,4
1741,644,a,hard,0,584.0,5
1742,436,a,EASY,1,466.6,5
1743,275,b,medium,0,549.2,5
1744,978,A,HARD,tak,581.3,1
1745,69,b,EASY,nie,399.0,2
1746,286,b,medium,tak,581.0,4
1747,599,a,EASY,1,"604,1",3
1748,744,c,medium,nie,481.6,1
1749,788,C,medium,1,632.2,5
1750,925,A,MEDIUM,tak,626.4,4
1751,732,a,easy,0,401.3,3
1752,782,C,MEDIUM,1,488.1,1
1753,640,B,easy,0,479.8,4
1754,772,B,hard,0,693.9,5
1755,780,B,medium,tak,649.2,1
1756,864,c,hard,0,753.3,1
1757,890,a,EASY,tak,601.9,3
1758,471,C,MEDIUM,0,"601,4",1
1759,1011,a,medium,1,516.7,3
1760,838,C,HARD,0,662.6,5
1761,238,B,medium,0,"577,5",brak
1762,151,a,medium,0,564.5,2
1763,712,b,MEDIUM,1,1740.6,1
1764,569,C,medium,1,521.5,3
1765,662,a,MEDIUM,0,696.3,2
1766,676,A,MEDIUM,1,563.9,5
1767,839,C,hard,0,727.8,brak
1768,652,A,easy,0,561.4,5
1769,69,C,HARD,1,"720,1",4
1770,717,C,easy,1,598.8,2
1771,745,c,HARD,nie,726.3,4
1772,421,a,MEDIUM,0,600.9,2
1773,776,C,easy,1,639.0,5
1774,901,a,medium,nie,"716,9",brak
1775,397,a,easy,tak,"595,7",5
1776,485,b,HARD,tak,628.1,3
1777,116,b,EASY,0,"551,9",2
1778,942,c,hard,1,661.5,1
1779,42,b,HARD,0,759.7,5
1780,892,c,EASY,0,404.6,2
1781,766,A,medium,nie,604.7,1
1782,930,C,EASY,1,470.1,4
1783,494,a,HARD,0,724.7,4
1784,655,C,EASY,0,"655,8",1
1785,830,a,hard,nie,"611,0",2
1786,605,C,EASY,tak,442.5,5
1787,318,A,MEDIUM,1,600.3,4
1788,821,A,HARD,0,579.8,2
1789,228,c,medium,nie,"663,5",5
1790,626,A,MEDIUM,1,"581,8",5
1791,51,a,easy,1,1523.8,2
1792,692,a,easy,tak,482.6,4
1793,109,b,EASY,1,564.5,1
1794,604,A,EASY,1,"422,5",3
1795,82,A,EASY,nie,"422,1",4
1796,268,b,EASY,nie,"603,1",2
1797,753,b,easy,1,479.7,2
1798,636,B,HARD,1,650.8,5
1799,185,a,hard,tak,620.9,5
1800,402,B,HARD,1,568.0,1
1801,253,A,HARD,1,844.1,2
1802,713,C,hard,1,671.6,3
1803,291,B,medium,0,548.0,3
1804,768,c,HARD,1,688.6,2
1805,425,b,HARD,1,1669.3,4
1806,188,B,HARD,1,641.3,2
1807,483,C,hard,1,748.9,2
1808,422,a,easy,1,637.8,4
1809,276,a,HARD,tak,804.6,2
1810,497,c,medium,0,1756.4,3
1811,776,A,MEDIUM,1,548.7,3
1812,753,a,MEDIUM,0,669.2,brak
1813,755,a,medium,0,611.3,1
1814,514,b,EASY,0,442.0,brak
1815,700,A,EASY,0,465.2,brak
1816,627,b,easy,1,529.5,3
1817,450,B,HARD,tak,664.3,4
1818,578,c,EASY,tak,541.4,4
1819,746,A,hard,0,"854,3",3
1820,792,a,easy,1,587.0,4
1821,569,b,hard,0,666.9,5
1822,114,B,HARD,nie,"1529,1",2
1823,231,C,EASY,0,566.9,3
1824,415,b,HARD,tak,807.3,2
1825,1014,c,hard,0,787.6,brak
1826,373,a,medium,tak,667.1,5
1827,655,b,hard,1,636.8,2
1828,158,C,medium,1,477.9,3
1829,558,a,medium,tak,591.6,5
1830,515,B,medium,0,590.3,3
1831,821,c,medium,0,560.9,4
1832,300,B,medium,0,600.9,3
1833,970,b,HARD,nie,"637,9",2
1834,631,c,EASY,nie,599.4,1
1835,285,C,easy,0,706.4,1
1836,514,B,hard,1,812.2,4
1837,808,A,HARD,0,665.8,5
1838,2,A,EASY,nie,599.0,5
1839,299,C,easy,0,520.6,5
1840,706,B,MEDIUM,0,445.3,3
1841,618,A,easy,0,"477,5",5
1842,627,C,medium,nie,439.9,5
1843,560,c,MEDIUM,nie,"558,6",5
1844,350,B,HARD,tak,693.7,4
1845,279,C,MEDIUM,1,725.3,brak
1846,63,B,MEDIUM,0,461.9,brak
1847,655,C,HARD,0,"685,9",3
1848,769,B,easy,1,"550,0",2
1849,883,a,EASY,1,628.2,2
1850,938,a,HARD,nie,632.1,3
1851,629,b,easy,1,557.4,3
1852,162,C,HARD,0,689.6,2
1853,703,c,medium,1,1553.1,2
1854,430,A,EASY,0,622.7,3
1855,22,a,MEDIUM,0,593.9,3
1856,349,c,hard,tak,624.5,4
1857,499,C,EASY,0,481.2,4
1858,176,A,hard,nie,1805.3,4
1859,57,C,hard,nie,717.4,4
1860,310,A,easy,nie,551.9,1
1861,996,B,MEDIUM,nie,"723,3",1
1862,976,c,medium,1,626.8,1
1863,657,A,EASY,0,"636,3",brak
1864,565,B,EASY,nie,551.6,5
1865,92,A,EASY,tak,457.9,brak
1866,615,c,easy,nie,521.2,4
1867,297,b,MEDIUM,tak,"469,9",2
1868,209,C,easy,1,469.5,4
1869,994,a,MEDIUM,1,"466,2",brak
1870,810,A,MEDIUM,nie,751.7,4
1871,761,C,easy,0,568.8,1
1872,545,a,hard,0,683.5,5
1873,409,c,medium,0,"676,0",5
1874,44,B,medium,0,"527,9",2
1875,165,A,EASY,1,522.2,5
1876,180,B,hard,1,700.2,brak
1877,612,A,MEDIUM,0,"663,7",5
1878,397,c,EASY,nie,475.0,1
1879,376,A,MEDIUM,tak,"788,5",2
1880,525,A,HARD,1,747.2,5
1881,740,B,EASY,tak,509.2,5
1882,481,B,EASY,0,603.9,4
1883,406,a,EASY,0,443.4,3
1884,273,A,easy,1,"524,6",5
1885,429,c,EASY,1,526.4,2
1886,546,C,HARD,0,811.3,1
1887,268,a,HARD,0,752.6,3
1888,618,A,HARD,tak,755.8,2
1889,945,c,medium,1,"596,3",3
1890,382,c,MEDIUM,0,703.5,3
1891,567,B,MEDIUM,tak,667.6,4
1892,35,C,EASY,0,"587,6",3
1893,617,b,HARD,0,717.4,5
1894,1000,B,HARD,0,707.1,4
1895,869,A,HARD,nie,817.4,brak
1896,829,C,medium,tak,"711,1",brak
1897,238,B,MEDIUM,0,527.7,1
1898,927,A,medium,tak,611.0,4
1899,507,A,medium,nie,"558,1",4
1900,516,B,medium,0,488.4,4
1901,114,a,EASY,nie,590.5,4
1902,873,a,HARD,1,569.9,5
1903,237,c,MEDIUM,0,1634.1,3
1904,567,c,MEDIUM,nie,798.5,2
1905,988,c,medium,tak,736.4,1
1906,550,c,EASY,tak,532.2,3
1907,745,c,HARD,nie,"623,9",3
1908,920,A,MEDIUM,0,652.8,3
1909,584,b,hard,1,711.4,1
1910,809,c,easy,0,"617,0",1
1911,979,C,MEDIUM,tak,721.3,4
1912,267,b,MEDIUM,nie,516.2,4
1913,700,A,medium,nie,586.1,5
1914,111,a,MEDIUM,tak,630.1,1
1915,555,B,medium,nie,492.3,4
1916,786,A,EASY,tak,1274.9,3
1917,161,B,easy,tak,247.0,5
1918,77,c,medium,0,497.7,brak
1919,467,a,hard,0,535.1,2
1920,361,b,medium,0,"648,3",1
1921,94,C,HARD,tak,675.6,2
1922,220,B,hard,1,805.0,4
1923,713,b,HARD,1,623.4,2
1924,936,b,HARD,1,864.3,4
1925,20,B,EASY,tak,301.8,5
1926,676,A,easy,0,"506,8",1
1927,83,B,MEDIUM,1,"516,0",3
1928,954,A,MEDIUM,nie,723.6,2
1929,1010,b,MEDIUM,1,599.4,3
1930,329,A,hard,tak,712.6,3
1931,461,A,easy,1,485.4,3
1932,739,C,EASY,0,435.0,5
1933,421,c,EASY,0,323.4,3
1934,593,B,EASY,1,544.0,4
1935,591,C,EASY,1,548.5,brak
1936,551,a,hard,nie,722.3,1
1937,765,A,EASY,0,"709,6",4
1938,406,B,hard,tak,491.3,4
1939,607,b,hard,0,651.0,5
1940,325,c,HARD,nie,702.4,4
1941,38,a,HARD,tak,"568,8",4
1942,871,a,easy,0,441.6,4
1943,830,b,hard,nie,592.2,5
1944,406,a,HARD,0,"745,4",4
1945,554,B,HARD,1,662.0,4
1946,1019,a,easy,0,528.9,1
1947,635,a,EASY,nie,515.3,2
1948,810,a,MEDIUM,tak,1902.4,5
1949,388,b,easy,tak,437.5,3
1950,553,c,medium,nie,638.7,1
1951,987,c,HARD,1,863.3,3
1952,228,b,easy,1,564.4,2
1953,251,b,EASY,1,597.4,4
1954,307,B,hard,0,702.9,2
1955,237,b,easy,0,410.2,1
1956,707,a,hard,1,608.1,1
1957,154,A,MEDIUM,nie,"603,6",1
1958,771,A,HARD,1,562.8,5
1959,246,a,medium,0,701.6,3
1960,5,a,EASY,0,"619,0",5
1961,875,a,MEDIUM,nie,665.4,1
1962,626,c,HARD,1,"742,3",5
1963,509,c,MEDIUM,nie,661.4,5
1964,588,B,hard,0,692.5,2
1965,280,B,medium,1,538.1,5
1966,514,A,hard,1,684.0,1
1967,182,a,MEDIUM,0,527.2,1
1968,986,C,medium,nie,615.1,2
1969,520,C,EASY,nie,"462,8",5
1970,569,C,medium,0,"1483,0",1
1971,394,A,HARD,0,612.5,brak
1972,729,C,HARD,0,"691,3",1
1973,562,B,medium,1,518.7,1
1974,619,C,MEDIUM,0,582.2,3
1975,311,C,medium,0,618.7,2
1976,212,a,HARD,1,734.5,3
1977,688,A,easy,0,"563,9",brak
1978,611,c,hard,nie,590.0,5
1979,415,A,hard,1,734.7,5
1980,79,b,HARD,1,579.1,3
1981,96,C,easy,nie,448.3,3
1982,149,A,EASY,nie,547.3,5
1983,54,C,hard,0,790.4,4
1984,550,A,easy,tak,474.7,3
1985,985,B,EASY,0,580.7,4
1986,674,A,easy,tak,359.2,1
1987,162,c,HARD,1,553.4,4
1988,831,a,EASY,nie,515.6,5
1989,1001,c,HARD,1,622.8,4
1990,848,c,hard,tak,791.7,5
1991,994,c,medium,nie,"1832,8",2
1992,594,C,easy,tak,440.0,3
1993,482,A,easy,0,"604,3",3
1994,282,c,medium,1,506.2,3
1995,534,B,MEDIUM,0,691.7,2
1996,771,b,medium,1,551.2,2
1997,675,B,MEDIUM,0,"1519,8",2
1998,123,C,medium,0,663.0,1
1999,574,C,MEDIUM,nie,577.4,1
2000,779,c,hard,0,"561,6",2
2001,478,C,easy,1,"456,3",5
2002,40,A,MEDIUM,1,764.8,5
2003,708,b,MEDIUM,1,709.4,4
2004,535,A,hard,tak,"742,1",5
2005,331,C,HARD,tak,"729,0",4
2006,46,A,HARD,0,675.6,4
2007,1019,A,medium,1,619.8,1
2008,183,b,HARD,0,787.9,brak
2009,172,B,HARD,0,813.5,2
2010,595,A,hard,nie,"624,3",3
2011,627,a,HARD,nie,"1834,2",brak
2012,26,B,EASY,0,430.8,4
2013,473,b,HARD,0,"759,5",5
2014,389,c,easy,0,497.2,2
2015,683,A,easy,1,692.5,5
2016,257,B,MEDIUM,1,1381.9,3
2017,131,C,MEDIUM,tak,525.7,2
2018,57,c,EASY,nie,"633,8",1
2019,379,a,HARD,tak,"608,6",5
2020,526,C,MEDIUM,nie,561.6,5
2021,935,C,MEDIUM,0,544.2,2
2022,259,c,MEDIUM,0,608.2,5
2023,617,a,easy,0,452.6,3
2024,43,A,hard,1,"719,1",4
2025,340,A,easy,nie,538.8,4
2026,916,A,EASY,0,507.5,4
2027,100,b,HARD,nie,751.7,1
2028,824,C,easy,0,"470,3",2
2029,968,A,EASY,nie,447.0,1
2030,187,b,MEDIUM,0,677.2,2
2031,88,A,MEDIUM,0,625.5,2
2032,845,c,hard,tak,618.1,1
2033,100,A,HARD,0,"748,4",brak
2034,598,B,hard,1,"746,3",2
2035,999,c,easy,0,"574,3",1
2036,748,B,easy,0,545.9,5
2037,821,b,medium,tak,1339.8,5
2038,657,b,MEDIUM,1,703.4,1
2039,278,C,MEDIUM,0,681.3,1
2040,235,a,EASY,1,518.1,5
2041,947,c,HARD,0,639.6,brak
2042,233,A,HARD,0,"777,9",2
2043,853,a,medium,1,613.5,3
2044,593,c,EASY,0,436.1,2
2045,588,a,MEDIUM,0,"598,9",2
2046,585,a,HARD,nie,668.3,2
2047,210,A,hard,1,700.3,1
2048,795,B,EASY,0,410.0,3
2049,819,c,MEDIUM,1,515.9,4
2050,253,a,EASY,nie,552.3,5
2051,242,c,MEDIUM,nie,639.5,5
2052,204,a,EASY,0,541.3,3
2053,490,a,hard,0,788.5,3
2054,993,C,EASY,1,570.7,5
2055,974,c,medium,tak,547.4,5
2056,329,b,hard,tak,"723,3",3
2057,747,C,MEDIUM,1,649.9,1
2058,67,a,hard,1,"763,1",1
2059,420,b,medium,1,647.8,5
2060,824,c,medium,0,636.4,5
2061,460,A,EASY,tak,"387,8",2
2062,293,a,easy,0,434.6,2
2063,524,a,MEDIUM,tak,1853.2,5
2064,245,C,hard,tak,"669,4",5
2065,860,a,EASY,1,"476,8",3
2066,883,C,EASY,0,540.4,4
2067,85,a,MEDIUM,0,649.9,1
2068,194,a,MEDIUM,0,613.2,4
2069,341,c,easy,tak,631.9,2
2070,697,b,easy,0,508.8,3
2071,269,a,MEDIUM,0,619.7,2
2072,366,A,easy,nie,405.7,3
2073,546,b,MEDIUM,tak,522.6,3
2074,93,B,medium,1,547.4,1
2075,749,c,medium,1,"525,6",5
2076,759,A,medium,1,569.8,1
2077,320,b,hard,nie,"775,3",1
2078,113,A,HARD,tak,873.2,1
2079,875,b,HARD,0,557.2,4
2080,239,a,HARD,0,623.2,3
2081,206,a,HARD,0,616.2,2
2082,852,b,medium,1,"573,9",3
2083,846,A,MEDIUM,nie,536.8,3
2084,247,B,HARD,tak,724.3,2
2085,109,b,easy,0,"565,5",4
2086,76,c,easy,nie,"486,4",2
2087,906,a,medium,nie,485.8,brak
2088,803,A,easy,1,"487,4",5
2089,521,A,EASY,0,560.8,brak
2090,537,C,EASY,nie,361.8,4
2091,868,c,EASY,0,523.2,3
2092,696,C,medium,tak,"574,1",3
2093,330,C,HARD,nie,744.4,2
2094,469,C,EASY,1,376.7,5
2095,435,B,HARD,0,745.8,2
2096,976,b,MEDIUM,nie,533.9,2
2097,277,A,HARD,tak,789.5,5
2098,158,B,MEDIUM,1,"570,6",4
2099,379,b,EASY,1,569.2,5
2100,970,A,HARD,1,"658,9",4
2101,177,b,easy,tak,559.8,5
2102,997,B,easy,nie,"509,1",brak
2103,848,C,hard,1,730.9,2
2104,134,b,HARD,0,799.7,2
2105,367,b,MEDIUM,tak,444.2,1
2106,620,a,HARD,0,639.3,3
2107,762,a,EASY,tak,525.8,brak
2108,958,c,EASY,nie,580.7,5
2109,180,a,EASY,tak,305.6,4
2110,849,a,hard,0,"684,0",5
2111,418,c,MEDIUM,0,"749,1",2
2112,762,a,MEDIUM,nie,610.6,4
2113,874,a,easy,1,"502,7",4
2114,389,a,HARD,nie,809.4,2
2115,690,B,MEDIUM,1,720.1,1
2116,554,A,hard,tak,662.9,brak
2117,886,C,easy,0,532.3,2
2118,627,b,easy,1,600.1,2
2119,663,C,MEDIUM,0,602.8,3
2120,139,b,MEDIUM,tak,657.3,5
2121,159,B,HARD,0,867.7,3
2122,794,B,HARD,0,787.2,brak
2123,790,A,MEDIUM,0,"567,4",5
2124,784,B,EASY,nie,480.0,4
2125,323,b,medium,tak,675.8,5
2126,934,A,hard,1,702.7,5
2127,384,b,EASY,0,"468,0",1
2128,142,B,MEDIUM,0,707.8,1
2129,658,B,HARD,0,691.8,4
2130,155,A,MEDIUM,0,"579,2",1
2131,804,C,MEDIUM,0,633.4,3
2132,225,a,MEDIUM,0,654.1,1
2133,1016,c,EASY,tak,598.5,1
2134,793,B,medium,nie,584.0,brak
2135,836,a,medium,1,1299.0,3
2136,223,A,MEDIUM,0,"537,2",1
2137,120,c,HARD,0,646.7,5
2138,469,c,hard,tak,613.3,1
2139,699,C,easy,1,"624,1",4
2140,262,b,MEDIUM,0,520.5,3
2141,869,A,MEDIUM,nie,"525,7",1
2142,704,b,MEDIUM,nie,"538,2",4
2143,1014,a,hard,tak,727.5,3
2144,618,c,medium,0,618.1,5
2145,51,c,medium,nie,553.8,2
2146,359,B,easy,0,625.1,2
2147,548,A,EASY,0,"483,0",brak
2148,267,a,MEDIUM,1,575.2,3
2149,589,b,MEDIUM,1,698.6,4
2150,424,a,hard,nie,661.5,2
2151,629,B,hard,tak,733.7,brak
2152,524,C,EASY,1,741.8,5
2153,224,C,EASY,tak,567.4,1
2154,733,c,EASY,nie,595.6,3
2155,723,A,HARD,0,680.2,5
2156,256,a,easy,nie,496.6,5
2157,282,b,hard,1,671.3,1
2158,865,B,easy,1,558.1,2
2159,440,C,easy,nie,500.7,4
2160,759,B,HARD,0,754.6,3
2161,561,b,EASY,1,467.9,5
2162,285,b,MEDIUM,0,673.0,1
2163,927,a,HARD,tak,592.9,1
2164,13,C,medium,1,471.0,1
2165,621,b,medium,0,640.0,4
2166,1007,a,EASY,0,607.1,1
2167,908,a,EASY,0,"595,2",5
2168,284,a,easy,0,474.6,2
2169,939,A,hard,tak,649.8,3
2170,674,A,hard,tak,"1451,4",5
2171,506,C,MEDIUM,nie,662.3,5
2172,777,B,hard,0,"656,8",brak
2173,449,C,MEDIUM,1,787.0,5
2174,240,C,hard,1,464.5,5
2175,878,b,hard,1,1374.7,2
2176,980,a,EASY,0,597.0,5
2177,874,a,HARD,tak,556.2,4
2178,968,a,EASY,1,493.5,3
2179,735,A,easy,nie,"612,6",brak
2180,741,a,MEDIUM,nie,652.3,3
2181,964,a,EASY,nie,"640,4",2
2182,239,b,medium,tak,641.0,2
2183,935,B,EASY,0,578.8,brak
2184,199,b,HARD,tak,"700,2",5
2185,263,A,easy,0,"606,2",3
2186,830,a,easy,1,515.3,3
2187,39,B,EASY,0,428.7,5
2188,550,c,hard,nie,694.7,2
2189,237,A,easy,nie,"587,8",4
2190,750,C,medium,nie,603.2,brak
2191,100,a,medium,tak,530.9,3
2192,914,b,easy,0,"564,7",5
2193,338,a,hard,0,568.0,3
2194,705,a,MEDIUM,1,615.7,4
2195,917,A,EASY,nie,"478,6",4
2196,338,A,medium,1,636.3,3
2197,795,B,MEDIUM,0,"550,7",4
2198,890,a,hard,tak,"650,4",2
2199,741,c,medium,1,569.5,3
2200,579,A,easy,nie,"575,3",3
2201,722,b,medium,nie,519.2,5
2202,532,b,HARD,1,798.6,4
2203,735,c,medium,0,"600,5",brak
2204,653,A,hard,1,623.6,5
2205,256,b,easy,0,683.6,2
2206,330,C,easy,0,713.4,2
2207,700,A,HARD,0,"760,2",5
2208,992,c,hard,tak,745.2,1
2209,509,A,easy,1,"494,0",3
2210,178,a,easy,1,457.1,2
2211,412,a,medium,nie,513.8,brak
2212,800,c,hard,1,756.4,5
2213,916,c,MEDIUM,1,660.5,4
2214,254,A,medium,1,580.2,5
2215,458,A,easy,0,377.5,1
2216,347,B,hard,tak,"762,2",1
2217,312,B,hard,0,610.3,4
2218,482,A,easy,0,"446,6",1
2219,202,C,MEDIUM,1,597.7,3
2220,428,C,HARD,1,"802,3",1
2221,886,b,medium,0,674.3,3
2222,791,c,EASY,0,652.5,3
2223,983,C,medium,tak,641.0,4
2224,597,C,HARD,nie,709.3,2
2225,308,b,hard,nie,847.7,2
2226,8,C,HARD,0,759.5,3
2227,587,c,hard,nie,849.8,4
2228,634,C,hard,0,653.3,4
2229,718,B,medium,0,"641,1",2
2230,561,a,medium,nie,616.0,1
2231,759,B,EASY,1,556.2,1
2232,2,b,EASY,0,552.1,5
2233,486,c,MEDIUM,nie,"588,8",3
2234,712,b,medium,nie,"1253,7",brak
2235,439,c,easy,1,500.7,2
2236,655,c,medium,1,762.1,2
2237,846,A,easy,nie,522.5,5
2238,755,C,HARD,0,653.5,brak
2239,778,b,hard,nie,764.6,1
2240,974,c,medium,tak,610.4,1
2241,933,c,easy,0,495.9,5
2242,112,C,MEDIUM,0,"571,1",1
2243,822,A,EASY,0,"447,8",1
2244,571,a,EASY,0,534.6,2
2245,548,A,MEDIUM,tak,606.2,5
2246,11,c,medium,tak,"548,5",1
2247,666,b,easy,tak,438.8,3
2248,331,A,EASY,1,479.9,3
2249,35,a,HARD,1,860.7,5
2250,313,B,medium,nie,628.3,4
2251,1002,a,MEDIUM,tak,"681,7",1
2252,743,A,easy,0,"386,6",5
2253,10,b,EASY,1,550.5,3
2254,618,c,easy,tak,597.3,3
2255,259,C,hard,1,572.6,5
2256,87,b,easy,tak,"405,4",3
2257,839,A,easy,1,"492,7",3
2258,657,A,medium,0,561.2,4
2259,770,A,hard,1,"858,7",4
2260,492,b,hard,0,663.8,2
2261,404,b,MEDIUM,0,634.0,3
2262,1015,a,MEDIUM,tak,"625,5",5
2263,9,c,MEDIUM,tak,652.2,1
2264,464,c,hard,1,770.4,3
2265,419,B,MEDIUM,0,1482.1,1
2266,885,c,easy,0,483.7,3
2267,785,B,easy,0,435.9,1
2268,120,b,medium,1,511.8,5
2269,408,b,hard,1,"567,7",1
2270,78,B,HARD,tak,543.4,3
2271,775,a,HARD,nie,"699,8",3
2272,858,a,MEDIUM,1,499.6,3
2273,221,a,HARD,0,739.4,3
2274,288,a,easy,0,494.9,3
2275,987,b,EASY,1,523.6,5
2276,602,C,medium,1,"692,8",5
2277,455,a,hard,1,771.4,3
2278,261,C,HARD,0,530.6,1
2279,264,C,MEDIUM,0,715.3,5
2280,748,C,medium,tak,551.2,4
2281,379,C,HARD,1,839.2,1
2282,282,b,HARD,tak,630.7,2
2283,939,a,MEDIUM,tak,508.1,5
2284,906,c,hard,0,"719,7",4
2285,149,c,easy,1,"364,4",5
2286,276,c,easy,0,"477,8",3
2287,5,C,easy,1,543.9,5
2288,719,a,hard,0,"572,7",4
2289,57,c,HARD,0,803.7,4
2290,260,c,MEDIUM,nie,704.3,3
2291,952,A,HARD,tak,627.6,1
2292,537,C,EASY,1,569.8,2
2293,691,C,medium,tak,589.3,5
2294,513,b,hard,1,676.7,2
2295,292,c,hard,0,651.5,4
2296,576,c,MEDIUM,tak,"479,6",2
2297,795,a,medium,0,585.4,5
2298,209,C,EASY,nie,"571,2",5
2299,523,a,MEDIUM,0,"545,1",5
2300,354,C,EASY,nie,500.6,3
2301,895,C,easy,nie,504.6,1
2302,626,C,EASY,1,518.7,3
2303,742,A,hard,nie,674.2,3
2304,515,b,hard,0,"741,8",4
2305,268,a,medium,0,729.8,3
2306,922,B,EASY,tak,557.5,2
2307,922,A,medium,0,"804,8",2
2308,282,A,hard,tak,"721,9",brak
2309,200,C,hard,1,791.4,4
2310,251,c,hard,1,799.9,brak
2311,985,A,easy,1,"510,6",3
2312,796,B,MEDIUM,nie,507.2,2
2313,687,C,EASY,0,441.8,4
2314,792,c,easy,0,683.7,4
2315,910,a,EASY,tak,563.7,1
2316,902,c,easy,0,684.1,3
2317,387,a,HARD,1,545.2,1
2318,821,A,medium,1,457.4,5
2319,281,A,easy,0,585.2,1
2320,550,b,medium,1,646.0,1
2321,926,b,hard,nie,"790,3",2
2322,169,c,MEDIUM,1,"419,2",4
2323,267,b,EASY,0,424.5,1
2324,384,A,medium,0,534.1,4
2325,738,a,hard,tak,628.8,2
2326,773,B,hard,0,641.3,brak
2327,572,b,medium,0,534.6,3
2328,221,A,easy,1,506.9,4
2329,730,C,medium,nie,562.5,1
2330,938,A,medium,tak,580.8,2
2331,885,c,MEDIUM,nie,"621,2",3
2332,690,b,hard,1,580.8,5
2333,5,c,easy,1,474.4,2
2334,314,a,medium,0,580.4,3
2335,880,b,hard,0,656.5,brak
2336,508,a,EASY,0,468.8,brak
2337,596,a,hard,1,668.3,brak
2338,913,b,EASY,nie,412.8,5
2339,430,A,HARD,nie,"716,5",3
2340,318,A,HARD,tak,700.0,3
2341,107,B,EASY,0,"498,3",3
2342,542,b,hard,1,753.1,3
2343,99,A,EASY,1,560.8,5
2344,581,b,HARD,nie,743.4,2
2345,767,B,hard,tak,647.5,2
2346,909,c,easy,1,552.0,5
2347,518,B,MEDIUM,1,"628,5",1
2348,781,C,easy,tak,"635,1",5
2349,251,B,HARD,1,702.3,brak
2350,454,B,MEDIUM,nie,571.3,5
2351,400,c,MEDIUM,0,547.4,3
2352,1016,C,MEDIUM,tak,629.6,3
2353,629,b,MEDIUM,nie,587.6,brak
2354,945,b,hard,0,761.2,2
2355,116,b,hard,0,684.1,4
2356,477,B,HARD,0,706.0,4
2357,884,a,HARD,1,677.0,4
2358,677,C,medium,1,660.7,1
2359,838,A,medium,tak,670.5,brak
2360,981,C,medium,1,"506,3",3
2361,828,A,easy,1,490.9,5
2362,424,c,MEDIUM,0,481.4,2
2363,658,a,medium,0,"830,8",5
2364,955,b,medium,tak,665.8,3
2365,528,A,easy,0,469.2,3
2366,772,C,easy,0,413.6,5
2367,619,a,EASY,1,"326,7",3
2368,725,c,EASY,1,"536,6",brak
2369,138,c,EASY,1,551.9,brak
2370,567,A,easy,1,425.4,4
2371,417,B,EASY,0,488.3,2
2372,664,B,MEDIUM,nie,576.2,1
2373,899,B,medium,0,"623,6",1
2374,1009,b,MEDIUM,1,"650,5",brak
2375,491,B,HARD,0,833.7,3
2376,212,c,easy,nie,453.2,3
2377,719,b,easy,nie,525.2,2
2378,795,c,MEDIUM,0,480.2,5
2379,421,a,hard,0,"765,1",brak
2380,937,b,easy,nie,515.1,2
2381,242,B,HARD,nie,839.4,4
2382,731,b,EASY,1,"664,4",5
2383,953,c,easy,0,473.7,1
2384,889,A,MEDIUM,0,604.2,1
2385,88,B,easy,0,1662.5,3
2386,901,c,MEDIUM,0,576.0,1
2387,705,c,medium,1,633.4,3
2388,629,c,easy,1,"425,5",4
2389,425,B,MEDIUM,0,719.8,brak
2390,247,b,hard,0,656.5,4
2391,982,a,EASY,0,"395,3",3
2392,410,b,HARD,nie,705.1,2
2393,438,C,medium,nie,"613,4",2
2394,98,B,medium,0,587.6,brak
2395,551,B,EASY,0,547.0,4
2396,693,c,EASY,0,594.8,4
2397,971,c,medium,nie,631.5,2
2398,622,b,medium,1,535.0,brak
2399,916,c,medium,0,566.5,5
2400,481,b,EASY,1,501.4,3
2401,536,C,medium,1,"595,7",5
2402,848,C,MEDIUM,1,554.2,2
2403,438,C,medium,0,781.7,brak
2404,4,C,medium,0,"450,9",2
2405,1004,c,hard,1,562.0,1
2406,452,A,MEDIUM,tak,683.7,4
2407,714,b,MEDIUM,1,"782,8",5
2408,686,b,EASY,0,480.8,5
2409,807,b,HARD,nie,"706,4",1
2410,257,c,HARD,1,642.6,2
2411,830,b,MEDIUM,0,465.9,2
2412,562,A,easy,nie,1719.0,2
2413,836,A,EASY,1,423.9,5
2414,434,a,medium,1,"715,1",2
2415,285,B,medium,nie,"470,4",brak
2416,510,c,MEDIUM,1,635.6,5
2417,942,a,medium,0,648.0,4
2418,32,A,HARD,1,690.2,3
2419,936,C,medium,nie,680.6,5
2420,729,a,hard,0,669.0,5
2421,221,a,EASY,tak,672.5,2
2422,845,B,medium,1,731.7,3
2423,423,c,HARD,1,691.7,1
2424,965,a,HARD,1,708.5,4
2425,766,A,MEDIUM,1,590.1,3
2426,862,a,hard,nie,658.8,1
2427,311,B,easy,1,535.3,brak
2428,741,C,MEDIUM,tak,638.4,1
2429,229,c,HARD,0,"699,3",1
2430,223,B,MEDIUM,tak,"659,6",5
2431,333,b,MEDIUM,1,788.8,3
2432,436,C,MEDIUM,1,580.7,3
2433,420,a,HARD,nie,756.2,1
2434,658,A,HARD,1,"868,2",1
2435,208,B,EASY,tak,403.6,1
2436,916,B,easy,1,604.1,5
2437,641,a,HARD,tak,778.5,4
2438,197,A,MEDIUM,1,732.6,3
2439,879,A,HARD,1,622.6,2
2440,206,A,easy,1,"397,9",1
2441,190,b,HARD,nie,"680,6",2
2442,1004,A,hard,1,693.8,4
2443,304,a,EASY,1,603.0,2
2444,833,b,MEDIUM,nie,520.8,1
2445,651,c,hard,tak,492.2,3
2446,238,B,MEDIUM,1,645.9,5
2447,968,b,EASY,0,421.8,3
2448,148,C,medium,nie,577.8,1
2449,169,C,hard,0,709.1,2
2450,829,B,EASY,1,561.0,5
2451,1016,b,HARD,1,"712,4",4
2452,944,b,HARD,1,659.9,5
2453,557,b,medium,0,619.1,4
2454,662,b,MEDIUM,0,487.7,brak
2455,187,c,medium,tak,696.1,3
2456,794,a,EASY,1,"591,2",5
2457,47,a,MEDIUM,0,"630,0",2
2458,187,b,medium,tak,584.2,brak
2459,590,c,HARD,1,"955,9",3
2460,448,C,easy,0,"491,9",brak
2461,775,c,medium,tak,571.0,4
2462,220,b,MEDIUM,1,"634,6",5
2463,861,b,MEDIUM,tak,611.3,brak
2464,686,B,hard,nie,729.6,5
2465,734,a,EASY,1,435.6,5
2466,795,a,medium,0,734.8,brak
2467,414,A,easy,1,603.4,3
2468,447,a,HARD,nie,779.0,2
2469,912,B,HARD,0,718.6,2
2470,137,c,easy,1,445.1,brak
2471,71,c,medium,nie,"723,3",5
2472,477,b,EASY,1,602.0,4
2473,381,a,HARD,0,566.0,brak
2474,374,C,EASY,1,"541,4",5
2475,986,A,medium,1,401.6,4
2476,559,a,MEDIUM,tak,759.6,3
2477,408,a,medium,tak,622.5,3
2478,512,C,easy,0,403.7,1
2479,798,A,HARD,0,806.2,5
2480,16,A,easy,0,"686,7",2
2481,877,A,EASY,0,424.7,4
2482,827,a,HARD,0,686.4,5
2483,751,a,HARD,nie,"711,0",1
2484,279,C,MEDIUM,nie,510.7,2
2485,1017,c,easy,tak,441.2,4
2486,472,C,medium,tak,595.6,brak
2487,762,b,medium,nie,716.1,1
2488,908,A,hard,nie,"886,4",brak
2489,962,c,easy,0,540.8,5
2490,188,a,medium,0,590.7,5
2491,147,A,medium,0,513.4,brak
2492,52,A,hard,nie,"703,8",3
2493,700,C,medium,0,"738,4",5
2494,761,b,HARD,1,"647,2",5
2495,451,b,HARD,tak,"651,1",4
2496,928,c,HARD,tak,777.2,5
2497,285,C,EASY,1,"474,4",1
2498,512,b,easy,1,2036.9,5
2499,858,b,EASY,1,290.1,3
2500,589,A,medium,0,433.8,5
2501,138,A,HARD,nie,654.3,2
2502,821,b,easy,0,627.4,brak
2503,678,c,HARD,0,770.8,brak
2504,593,a,HARD,1,700.5,3
2505,469,a,MEDIUM,0,459.2,5
2506,584,c,easy,nie,700.8,4
2507,980,a,medium,1,595.8,2
2508,659,b,MEDIUM,1,661.5,4
2509,308,C,medium,1,546.4,5
2510,698,b,medium,tak,"570,5",4
2511,865,C,EASY,1,343.9,4
2512,159,a,EASY,1,"330,7",4
2513,846,b,easy,tak,547.3,2
2514,694,C,HARD,nie,789.6,5
2515,795,c,easy,0,565.6,4
2516,340,C,hard,nie,"678,6",1
2517,129,a,hard,1,652.2,3
2518,33,a,HARD,1,774.1,5
2519,356,B,HARD,1,"701,8",2
2520,746,B,EASY,0,"643,9",1
2521,388,C,MEDIUM,0,"1606,0",1
2522,370,A,medium,1,"572,3",1
2523,124,A,MEDIUM,tak,667.0,2
2524,456,B,MEDIUM,0,716.3,3
2525,907,A,medium,0,699.5,2
2526,945,a,easy,0,479.9,1
2527,812,c,HARD,0,725.4,2
2528,232,B,MEDIUM,1,691.0,5
2529,797,a,medium,1,626.2,brak
2530,450,C,HARD,nie,684.6,1
2531,429,C,MEDIUM,nie,"1915,9",2
2532,492,a,MEDIUM,nie,631.9,1
2533,255,c,easy,1,634.4,brak
2534,738,B,easy,0,483.0,5
2535,522,B,EASY,0,"510,2",5
2536,796,A,HARD,1,670.2,4
2537,304,B,easy,1,"1228,1",4
2538,915,A,EASY,nie,381.1,1
2539,841,b,HARD,nie,667.2,4
2540,43,c,EASY,0,"600,4",3
2541,257,C,medium,1,639.7,2
2542,897,a,hard,tak,"777,3",3
2543,921,B,easy,tak,452.1,3
2544,123,B,HARD,0,624.0,1
2545,669,c,EASY,nie,578.3,2
2546,943,B,MEDIUM,tak,606.1,1
2547,746,B,hard,1,708.6,1
2548,478,C,easy,1,566.4,1
2549,849,c,medium,0,1733.4,brak
2550,41,C,HARD,1,"754,2",2
2551,435,C,MEDIUM,nie,520.9,3
2552,158,A,medium,nie,"664,3",5
2553,308,C,MEDIUM,1,"497,6",2
2554,399,C,HARD,tak,862.0,5
2555,79,a,medium,0,662.9,3
2556,207,c,MEDIUM,tak,630.0,1
2557,701,c,easy,1,559.7,1
2558,772,c,MEDIUM,nie,"736,0",4
2559,262,A,MEDIUM,1,536.1,3
2560,125,C,hard,tak,860.6,2
2561,819,b,MEDIUM,0,710.5,4
2562,15,A,easy,0,461.2,5
2563,249,c,hard,0,"683,0",2
2564,908,b,MEDIUM,0,638.4,4
2565,486,b,MEDIUM,1,746.1,3
2566,133,B,medium,nie,426.2,5
2567,820,a,EASY,0,"497,0",1
2568,708,A,easy,1,453.6,5
2569,211,b,easy,nie,481.3,2
2570,33,c,HARD,0,"745,7",1
2571,369,c,HARD,1,"712,6",1
2572,949,a,HARD,nie,669.9,1
2573,642,A,hard,0,"628,4",2
2574,548,A,medium,1,592.4,4
2575,595,C,EASY,tak,707.8,brak
2576,441,B,easy,1,"484,1",5
2577,300,c,MEDIUM,1,656.3,brak
2578,59,A,hard,0,624.0,4
2579,106,c,easy,tak,552.2,5
2580,726,b,hard,nie,666.9,1
2581,141,B,EASY,1,500.2,2
2582,585,c,MEDIUM,nie,"644,6",2
2583,377,A,EASY,0,536.5,1
2584,78,a,medium,0,708.7,3
2585,300,b,hard,nie,645.9,2
2586,34,B,easy,1,281.3,3
2587,381,B,EASY,1,407.4,4
2588,60,b,medium,tak,600.0,brak
2589,266,b,EASY,nie,452.6,4
2590,777,b,easy,0,"499,1",5
2591,334,C,EASY,1,"457,6",5
2592,739,A,medium,1,"570,1",4
2593,926,B,EASY,tak,525.2,brak
2594,963,a,MEDIUM,0,630.0,2
2595,737,B,HARD,0,815.0,1
2596,442,b,MEDIUM,0,598.8,3
2597,381,C,MEDIUM,1,684.1,2
2598,850,B,medium,0,687.0,1
2599,893,C,MEDIUM,nie,664.5,2
2600,11,b,HARD,1,846.7,3
2601,232,C,medium,nie,592.1,brak
2602,868,c,medium,tak,551.4,5
2603,550,a,MEDIUM,0,"745,4",2
2604,992,a,EASY,0,1228.8,3
2605,415,C,medium,1,704.3,3
2606,587,a,hard,nie,777.8,2
2607,974,c,HARD,1,"677,6",3
2608,303,b,hard,0,"702,5",4
2609,583,C,medium,0,560.1,brak
2610,845,b,hard,0,"607,3",4
2611,303,c,medium,0,"572,2",3
2612,244,C,EASY,0,385.0,4
2613,261,C,hard,nie,839.4,2
2614,707,A,hard,0,741.1,1
2615,543,a,MEDIUM,0,562.9,3
2616,184,a,medium,0,"570,2",4
2617,306,A,medium,nie,686.2,2
2618,649,A,medium,0,731.3,3
2619,52,C,EASY,tak,503.5,1
2620,77,B,EASY,tak,617.9,brak
2621,1002,A,medium,0,608.4,3
2622,224,A,MEDIUM,0,"592,4",2
2623,344,A,MEDIUM,tak,"609,5",2
2624,814,A,medium,0,480.3,3
2625,77,a,HARD,1,694.0,5
2626,993,a,MEDIUM,0,666.5,2
2627,630,B,hard,1,621.9,5
2628,662,c,HARD,1,639.9,5
2629,791,b,MEDIUM,1,580.2,3
2630,414,c,hard,nie,634.5,1
2631,358,A,EASY,0,551.5,1
2632,707,A,MEDIUM,0,761.7,4
2633,319,b,easy,1,"647,3",5
2634,754,C,HARD,1,741.5,4
2635,88,A,EASY,1,485.9,5
2636,627,c,hard,1,633.1,4
2637,988,c,HARD,tak,570.7,4
2638,866,a,MEDIUM,nie,439.0,2
2639,266,a,EASY,0,466.5,5
2640,217,b,medium,nie,820.3,2
2641,511,c,hard,0,"848,2",2
2642,489,B,medium,tak,567.7,2
2643,113,b,hard,tak,679.9,1
2644,458,C,EASY,0,436.2,1
2645,118,B,easy,nie,1798.4,2
2646,106,C,EASY,nie,598.8,3
2647,634,C,EASY,1,561.5,4
2648,417,C,hard,0,650.0,1
2649,958,a,easy,nie,603.5,4
2650,536,C,MEDIUM,0,"1591,8",4
2651,569,a,hard,0,"671,4",3
2652,959,C,EASY,0,496.1,2
2653,730,C,MEDIUM,0,611.7,4
2654,320,C,hard,0,"805,3",4
2655,469,C,easy,0,578.4,3
2656,821,c,hard,nie,"563,2",1
2657,630,B,hard,1,"920,2",3
2658,110,C,HARD,1,"773,3",5
2659,286,A,EASY,0,573.3,5
2660,721,B,easy,tak,501.9,4
2661,413,c,MEDIUM,1,"533,7",5
2662,529,c,medium,0,551.6,1
2663,146,B,MEDIUM,1,"635,6",3
2664,655,C,EASY,1,441.6,2
2665,942,B,medium,1,"556,0",2
2666,679,c,easy,nie,481.5,1
2667,386,C,HARD,tak,656.1,4
2668,915,A,HARD,1,1859.3,2
2669,554,C,easy,0,739.3,2
2670,715,C,medium,1,606.4,5
2671,971,c,EASY,nie,677.3,brak
2672,617,b,EASY,0,1972.1,3
2673,646,B,HARD,0,721.6,1
2674,529,b,HARD,nie,826.8,2
2675,854,B,HARD,0,"608,7",1
2676,581,B,EASY,tak,606.8,4
2677,906,C,medium,0,531.9,2
2678,265,B,MEDIUM,nie,642.4,1
2679,1004,a,medium,tak,715.1,2
2680,472,B,HARD,nie,642.4,2
2681,616,A,hard,0,618.5,5
2682,610,A,medium,1,690.6,brak
2683,139,C,medium,tak,1816.6,3
2684,798,A,hard,1,707.4,3
2685,696,A,EASY,1,596.6,1
2686,817,b,HARD,1,667.4,5
2687,700,C,HARD,1,681.4,5
2688,333,c,medium,0,"633,4",2
2689,473,a,EASY,nie,1416.8,brak
2690,892,b,hard,0,756.4,2
2691,211,b,HARD,0,"670,6",4
2692,832,c,hard,0,574.2,brak
2693,573,b,EASY,1,406.9,2
2694,511,B,EASY,0,474.2,3
2695,147,c,MEDIUM,0,667.4,3
2696,341,B,EASY,0,697.0,4
2697,435,B,medium,nie,582.0,brak
2698,643,A,easy,0,"567,3",4
2699,95,A,EASY,0,470.2,4
2700,9,B,EASY,0,495.0,4
2701,239,C,MEDIUM,tak,"740,7",3
2702,860,c,medium,nie,378.3,3
2703,463,C,easy,0,627.1,1
2704,161,a,HARD,1,669.6,3
2705,586,c,easy,1,1857.3,3
2706,416,b,easy,1,1883.2,3
2707,1007,b,HARD,1,698.8,4
2708,352,c,MEDIUM,1,"639,2",3
2709,905,a,hard,tak,705.0,4
2710,795,a,easy,1,575.7,1
2711,570,C,easy,1,356.4,3
2712,917,c,EASY,0,543.9,1
2713,468,b,EASY,1,585.5,3
2714,58,a,medium,nie,"539,3",brak
2715,969,C,medium,tak,489.2,2
2716,443,c,MEDIUM,tak,709.8,5
2717,976,A,hard,0,754.0,2
2718,948,c,easy,0,553.5,1
2719,758,b,EASY,nie,399.4,4
2720,453,b,HARD,nie,"702,1",3
2721,532,C,EASY,0,"362,1",1
2722,795,a,easy,tak,576.0,2
2723,534,B,HARD,tak,839.4,1
2724,813,b,easy,1,402.3,2
2725,573,b,easy,tak,470.6,2
2726,653,C,MEDIUM,tak,687.5,2
2727,237,c,MEDIUM,0,383.7,3
2728,67,c,MEDIUM,1,"616,0",2
2729,50,b,medium,tak,497.3,2
2730,319,a,HARD,0,555.6,2
2731,131,B,easy,1,452.5,1
2732,728,c,hard,tak,"742,3",4
2733,987,C,EASY,tak,469.1,3
2734,107,A,hard,1,574.6,1
2735,516,C,hard,1,827.5,4
2736,1017,b,medium,1,623.5,brak
2737,541,c,MEDIUM,1,511.8,3
2738,280,A,easy,tak,511.9,4
2739,614,b,easy,1,654.5,3
2740,411,C,MEDIUM,tak,640.0,1
2741,132,c,EASY,1,"445,2",1
2742,773,A,easy,1,489.5,5
2743,24,C,hard,1,613.6,5
2744,424,B,hard,0,1414.3,3
2745,74,a,hard,0,755.4,2
2746,421,C,EASY,1,535.3,3
2747,326,C,HARD,nie,645.0,1
2748,559,C,medium,nie,491.8,1
2749,796,b,EASY,0,399.0,4
2750,1015,c,EASY,0,610.8,4
2751,854,c,hard,tak,"691,0",1
2752,356,c,hard,1,"670,2",3
2753,449,a,HARD,0,"670,3",4
2754,505,A,easy,0,"590,8",brak
2755,110,C,EASY,nie,544.6,1
2756,117,A,EASY,nie,609.8,1
2757,399,a,easy,tak,313.1,2
2758,921,A,HARD,0,699.0,1
2759,520,b,hard,1,901.5,4
2760,365,b,easy,1,"531,8",5
2761,341,A,easy,1,399.9,2
2762,413,A,medium,0,580.6,1
2763,64,a,HARD,1,821.6,5
2764,382,C,HARD,1,562.0,brak
2765,101,c,hard,0,851.0,brak
2766,378,c,HARD,0,668.9,5
2767,149,A,hard,0,"826,7",3
2768,912,a,EASY,1,632.0,4
2769,771,a,medium,1,"521,6",4
2770,128,b,hard,1,828.2,3
2771,294,C,hard,1,"860,2",1
2772,692,A,hard,0,"735,1",1
2773,199,b,hard,nie,534.4,2
2774,372,a,EASY,nie,"531,2",3
2775,861,C,MEDIUM,0,576.1,3
2776,591,b,medium,0,"495,5",3
2777,879,a,EASY,0,565.6,5
2778,649,b,HARD,nie,"738,7",2
2779,814,c,EASY,0,504.4,5
2780,958,A,HARD,0,541.0,5
2781,553,c,easy,tak,653.4,5
2782,432,C,hard,0,620.4,5
2783,995,b,medium,0,"736,8",brak
2784,262,b,hard,1,726.8,3
2785,759,A,medium,1,600.4,3
2786,122,b,medium,1,"691,9",3
2787,866,c,easy,tak,593.9,5
2788,444,c,EASY,0,1245.6,4
2789,527,b,easy,nie,613.6,4
2790,381,C,EASY,1,"569,0",4
2791,355,C,HARD,1,660.8,brak
2792,523,a,hard,0,"631,2",1
2793,900,a,HARD,1,574.0,2
2794,722,A,medium,0,534.3,2
2795,727,B,hard,0,571.8,5
2796,804,c,medium,0,"1876,7",5
2797,799,A,HARD,1,758.9,2
2798,861,b,medium,nie,638.3,brak
2799,377,c,easy,tak,"526,3",1
2800,515,A,HARD,0,554.2,1
2801,172,b,EASY,0,582.1,3
2802,768,b,medium,0,710.4,1
2803,556,c,easy,1,510.3,2
2804,15,b,easy,0,514.4,brak
2805,879,c,hard,1,"938,9",3
2806,368,b,hard,0,603.0,5
2807,481,b,EASY,0,557.6,5
2808,566,b,easy,tak,470.4,3
2809,96,A,medium,1,501.8,1
2810,95,b,MEDIUM,1,"677,1",5
2811,422,a,HARD,0,676.2,5
2812,418,B,medium,tak,566.1,2
2813,897,C,medium,0,541.6,4
2814,50,b,HARD,nie,702.2,1
2815,1019,C,MEDIUM,0,1421.9,4
2816,234,A,easy,1,648.3,1
2817,686,c,HARD,1,777.2,4
2818,538,c,medium,nie,627.5,2
2819,696,b,EASY,1,502.6,3
2820,479,C,EASY,0,403.3,3
2821,558,b,easy,0,507.9,5
2822,755,B,easy,0,580.5,3
2823,287,C,hard,1,754.9,3
2824,43,b,HARD,0,"815,3",2
2825,475,b,hard,1,580.1,5
2826,469,B,easy,0,"588,0",4
2827,324,B,HARD,tak,517.0,1
2828,994,b,MEDIUM,0,462.1,brak
2829,341,a,medium,nie,623.1,3
2830,297,a,medium,0,464.5,3
2831,899,c,hard,1,781.3,4
2832,178,a,EASY,0,"469,9",1
2833,466,b,medium,1,513.3,5
2834,841,a,EASY,nie,510.4,2
2835,736,A,EASY,0,"459,9",1
2836,240,A,MEDIUM,0,"588,8",1
2837,419,B,easy,nie,504.8,1
2838,726,C,EASY,nie,513.3,1
2839,233,a,MEDIUM,tak,697.1,1
2840,824,C,MEDIUM,0,"625,5",brak
2841,156,B,easy,1,"604,2",4
2842,694,c,EASY,0,375.8,3
2843,459,C,medium,1,387.6,4
2844,356,C,EASY,1,565.0,1
2845,833,c,easy,1,583.9,5
2846,107,a,hard,1,741.0,brak
2847,614,b,HARD,tak,633.2,5
2848,903,b,EASY,tak,"292,4",2
2849,859,A,HARD,0,"687,4",4
2850,299,B,hard,nie,"661,2",2
2851,136,b,HARD,1,741.5,4
2852,317,C,hard,tak,681.3,2
2853,421,B,HARD,tak,717.8,3
2854,570,b,easy,0,473.7,5
2855,648,a,medium,0,725.9,4
2856,463,a,hard,1,"1288,0",3
2857,762,A,easy,1,"497,3",brak
2858,824,a,hard,0,694.2,5
2859,984,A,HARD,1,612.5,3
2860,41,B,medium,1,492.0,5
2861,180,A,easy,0,540.5,3
2862,659,c,easy,1,396.4,2
2863,728,b,medium,0,610.2,3
2864,568,B,HARD,nie,835.2,2
2865,467,b,hard,0,639.6,2
2866,321,c,HARD,1,800.2,2
2867,132,B,medium,0,"560,0",4
2868,628,C,hard,tak,590.5,4
2869,732,C,medium,0,670.1,5
2870,41,C,medium,1,636.8,2
2871,637,B,hard,1,656.7,4
2872,857,C,MEDIUM,1,"683,3",3
2873,742,c,MEDIUM,0,592.2,4
2874,195,A,easy,1,431.4,5
2875,655,c,medium,1,519.5,3
2876,375,c,HARD,1,713.4,4
2877,58,c,MEDIUM,0,"615,1",3
2878,859,C,MEDIUM,nie,531.7,2
2879,276,a,hard,1,751.6,brak
2880,949,C,HARD,1,744.2,3
2881,490,C,HARD,1,618.0,4
2882,355,b,MEDIUM,tak,726.8,5
2883,332,C,HARD,1,689.6,3
2884,671,a,EASY,0,593.1,1
2885,980,c,HARD,1,576.3,1
2886,273,b,easy,nie,"481,1",3
2887,551,A,HARD,1,633.2,1
2888,341,C,hard,0,"697,2",2
2889,277,a,hard,0,615.7,5
2890,504,c,easy,0,313.4,3
2891,833,a,hard,tak,"571,0",3
2892,918,C,MEDIUM,0,679.2,3
2893,458,A,hard,tak,736.1,4
2894,586,a,hard,1,611.2,3
2895,502,C,medium,1,528.7,3
2896,591,c,easy,1,451.4,4
2897,277,A,HARD,1,575.4,1
2898,928,B,EASY,0,401.8,4
2899,896,a,EASY,1,542.5,5
2900,80,B,hard,1,689.8,2
2901,402,a,MEDIUM,0,605.0,4
2902,239,c,HARD,0,820.9,5
2903,171,C,easy,0,"550,8",3
2904,792,a,HARD,tak,1761.4,5
2905,73,c,medium,1,"534,1",3
2906,330,c,hard,tak,"607,6",brak
2907,988,C,EASY,0,464.2,1
2908,777,c,medium,0,595.8,5
2909,868,C,EASY,1,431.9,3
2910,292,a,medium,0,547.3,5
2911,555,a,medium,0,"667,7",1
2912,826,A,medium,1,"624,7",brak
2913,269,A,MEDIUM,1,"539,9",3
2914,5,B,easy,1,607.8,1
2915,189,a,HARD,1,"664,2",5
2916,837,c,EASY,1,644.9,5
2917,695,A,easy,1,466.4,2
2918,181,c,medium,1,493.5,1
2919,260,b,EASY,0,504.1,1
2920,833,B,EASY,1,609.4,1
2921,662,C,EASY,1,494.8,2
2922,157,A,medium,0,430.7,5
2923,222,b,medium,tak,532.1,5
2924,753,C,hard,0,664.5,brak
2925,386,A,MEDIUM,tak,579.0,3
2926,318,b,MEDIUM,1,"704,5",2
2927,621,B,HARD,nie,799.3,5
2928,933,B,EASY,1,"548,5",3
2929,99,c,hard,0,818.7,4
2930,573,B,medium,0,706.7,4
2931,783,B,HARD,0,734.5,3
2932,13,b,HARD,tak,604.7,2
2933,92,a,easy,0,557.8,4
2934,701,b,medium,0,514.7,5
2935,746,B,medium,1,620.2,4
2936,522,C,hard,1,665.3,3
2937,774,A,medium,tak,724.0,5
2938,847,C,HARD,1,612.2,1
2939,247,c,easy,1,"540,9",5
2940,770,A,medium,0,475.7,brak
2941,803,C,medium,0,1766.7,1
2942,454,c,MEDIUM,0,675.2,4
2943,730,B,hard,0,733.7,1
2944,24,c,EASY,0,524.3,2
2945,1014,A,medium,0,"787,1",4
2946,823,b,HARD,nie,"522,3",1
2947,778,a,HARD,1,669.2,4
2948,795,c,EASY,1,562.5,1
2949,629,C,MEDIUM,0,648.5,1
2950,370,c,HARD,tak,665.0,5
2951,393,A,easy,tak,"512,6",5
2952,636,c,MEDIUM,nie,"560,9",4
2953,248,a,EASY,1,428.6,3
2954,829,C,EASY,1,524.2,5
2955,545,C,HARD,1,744.4,1
2956,278,A,medium,1,642.1,2
2957,3,C,easy,1,"611,9",2
2958,922,b,easy,1,594.5,2
2959,943,b,medium,nie,703.7,4
2960,650,C,medium,1,565.9,3
2961,251,b,HARD,nie,545.6,3
2962,382,C,HARD,0,"609,7",1
2963,617,a,easy,1,383.1,1
2964,675,C,hard,nie,"746,5",1
2965,436,B,MEDIUM,1,679.4,5
2966,153,B,EASY,0,525.1,4
2967,453,A,EASY,1,"2020,5",brak
2968,310,a,EASY,nie,581.5,4
2969,501,A,EASY,1,564.3,5
2970,446,a,medium,0,519.3,2
2971,642,c,HARD,0,805.0,1
2972,98,C,medium,nie,"724,9",5
2973,176,C,medium,nie,610.5,5
2974,502,A,EASY,1,484.5,brak
2975,505,A,HARD,tak,550.0,1
2976,985,A,EASY,0,595.0,3
2977,693,b,hard,tak,739.4,1
2978,52,A,HARD,nie,1851.8,3
2979,741,b,easy,1,"485,2",3
2980,766,c,easy,0,443.9,4
2981,646,c,easy,tak,518.1,2
2982,62,C,EASY,1,480.2,3
2983,225,C,hard,tak,584.2,2
2984,959,c,HARD,nie,600.7,1
2985,845,c,HARD,0,"708,7",1
2986,472,C,MEDIUM,1,590.9,4
2987,882,b,EASY,nie,"461,3",1
2988,263,b,HARD,0,655.5,4
2989,178,A,medium,0,515.9,5
2990,128,c,hard,1,"795,8",brak
2991,663,b,MEDIUM,tak,527.5,4
2992,396,A,medium,tak,546.6,1
2993,931,c,HARD,0,707.0,5
2994,349,b,hard,0,1214.0,3
2995,311,B,easy,1,448.2,1
2996,150,C,HARD,tak,711.9,2
2997,876,c,easy,tak,526.0,2
2998,411,c,HARD,0,684.7,4
2999,730,a,MEDIUM,tak,"677,7",4
3000,165,B,medium,tak,"664,5",3
